pos,corr_resp,trials_3.thisRepN,trials_3.thisTrialN,trials_3.thisN,trials_3.thisIndex,trials.thisRepN,trials.thisTrialN,trials.thisN,trials.thisIndex,trials_2.thisRepN,trials_2.thisTrialN,trials_2.thisN,trials_2.thisIndex,fixation.started,line1.started,line2.started,line3.started,line4.started,fixation.stopped,probe.started,key_resp.started,key_resp.keys,key_resp.corr,key_resp.rt,key_resp.duration,participant,session,date,expName,psychopyVersion,frameRate,
-50,x,0,0,0,0,0,0,0,0,,,,,200.73162749999983,201.7297639000003,201.7297639000003,201.7297639000003,201.7297639000003,201.74733380000043,202.71255580000025,202.71255580000025,x,1,1.2169322000004286,None,01,001,2023-10-09_13h15.54.320,motorsequencelearning,2023.1.3,59.82499991045621,
150,v,0,0,0,0,0,1,1,1,,,,,203.96168129999978,204.94580369999994,204.94580369999994,204.94580369999994,204.94580369999994,204.96218869999984,205.94618020000007,205.94618020000007,v,1,0.8407200000006014,None,01,001,2023-10-09_13h15.54.320,motorsequencelearning,2023.1.3,59.82499991045621,
50,c,0,0,0,0,0,2,2,2,,,,,206.81247639999992,207.81128480000052,207.81128480000052,207.81128480000052,207.81128480000052,207.82774650000056,208.81250500000033,208.81250500000033,c,1,0.3687373999996453,None,01,001,2023-10-09_13h15.54.320,motorsequencelearning,2023.1.3,59.82499991045621,
-150,z,0,0,0,0,0,3,3,3,,,,,209.21188260000008,210.2112149999998,210.2112149999998,210.2112149999998,210.2112149999998,210.2112149999998,211.2106663999998,211.2106663999998,z,1,0.5139604999999392,None,01,001,2023-10-09_13h15.54.320,motorsequencelearning,2023.1.3,59.82499991045621,
-50,x,0,0,0,0,1,0,4,0,,,,,211.74369840000008,212.74304380000058,212.74304380000058,212.74304380000058,212.74304380000058,212.74304380000058,213.74398260000044,213.74398260000044,x,1,0.35037289999991117,None,01,001,2023-10-09_13h15.54.320,motorsequencelearning,2023.1.3,59.82499991045621,
150,v,0,0,0,0,1,1,5,1,,,,,214.12640599999986,215.1268157999998,215.1268157999998,215.1268157999998,215.1268157999998,215.1268157999998,216.12610610000002,216.12610610000002,v,1,0.5062840999994478,None,01,001,2023-10-09_13h15.54.320,motorsequencelearning,2023.1.3,59.82499991045621,
50,c,0,0,0,0,1,2,6,2,,,,,216.65907519999973,217.65975089999984,217.65975089999984,217.65975089999984,217.65975089999984,217.65975089999984,218.65884180000057,218.65884180000057,c,1,0.308610000000499,None,01,001,2023-10-09_13h15.54.320,motorsequencelearning,2023.1.3,59.82499991045621,
-150,z,0,0,0,0,1,3,7,3,,,,,218.9918300000004,219.99100409999983,219.99100409999983,219.99100409999983,219.99100409999983,219.99100409999983,220.99137519999977,220.99137519999977,z,1,0.4839448999996421,None,01,001,2023-10-09_13h15.54.320,motorsequencelearning,2023.1.3,59.82499991045621,
-50,x,0,0,0,0,2,0,8,0,,,,,221.5077685000001,222.50723190000053,222.50723190000053,222.50723190000053,222.50723190000053,222.52364720000014,223.50719909999998,223.50719909999998,x,1,0.43954140000050756,None,01,001,2023-10-09_13h15.54.320,motorsequencelearning,2023.1.3,59.82499991045621,
150,v,0,0,0,0,2,1,9,1,,,,,223.9734438999999,224.97327369999994,224.97327369999994,224.97327369999994,224.97327369999994,224.97327369999994,225.97364229999994,225.97364229999994,v,1,0.5897958000000472,None,01,001,2023-10-09_13h15.54.320,motorsequencelearning,2023.1.3,59.82499991045621,
50,c,0,0,0,0,2,2,10,2,,,,,226.5896628000005,227.60494310000058,227.60494310000058,227.60494310000058,227.60494310000058,227.60494310000058,228.5886159000006,228.5886159000006,c,1,0.3691641999998865,None,01,001,2023-10-09_13h15.54.320,motorsequencelearning,2023.1.3,59.82499991045621,
-150,z,0,0,0,0,2,3,11,3,,,,,228.98840020000034,229.9882002999998,229.9882002999998,229.9882002999998,229.9882002999998,229.9882002999998,230.98802060000025,230.98802060000025,z,1,0.5063304999998763,None,01,001,2023-10-09_13h15.54.320,motorsequencelearning,2023.1.3,59.82499991045621,
-50,x,0,0,0,0,3,0,12,0,,,,,231.52110399999992,232.52176230000032,232.52176230000032,232.52176230000032,232.52176230000032,232.52176230000032,233.5206557000006,233.5206557000006,x,1,0.3593117000004895,None,01,001,2023-10-09_13h15.54.320,motorsequencelearning,2023.1.3,59.82499991045621,
150,v,0,0,0,0,3,1,13,1,,,,,233.90354100000013,234.90452190000042,234.90452190000042,234.90452190000042,234.90452190000042,234.90452190000042,235.9030413000005,235.9030413000005,v,1,0.5291342000004988,None,01,001,2023-10-09_13h15.54.320,motorsequencelearning,2023.1.3,59.82499991045621,
50,c,0,0,0,0,3,2,14,2,,,,,236.45308669999986,237.4525832000004,237.4525832000004,237.4525832000004,237.4525832000004,237.4525832000004,238.4526847000002,238.4526847000002,c,1,0.5262845000002017,None,01,001,2023-10-09_13h15.54.320,motorsequencelearning,2023.1.3,59.82499991045621,
-150,z,0,0,0,0,3,3,15,3,,,,,239.00202820000004,240.00178619999997,240.00178619999997,240.00178619999997,240.00178619999997,240.00178619999997,241.00144339999997,241.00144339999997,z,1,0.39227079999955095,None,01,001,2023-10-09_13h15.54.320,motorsequencelearning,2023.1.3,59.82499991045621,
-50,x,0,0,0,0,4,0,16,0,,,,,241.4180934000001,242.41838430000053,242.41838430000053,242.41838430000053,242.41838430000053,242.41838430000053,243.4175551000003,243.4175551000003,x,1,0.40788130000009915,None,01,001,2023-10-09_13h15.54.320,motorsequencelearning,2023.1.3,59.82499991045621,
150,v,0,0,0,0,4,1,17,1,,,,,243.85133319999977,244.85058549999985,244.85058549999985,244.85058549999985,244.85058549999985,244.85058549999985,245.84984399999985,245.84984399999985,v,1,0.500371499999801,None,01,001,2023-10-09_13h15.54.320,motorsequencelearning,2023.1.3,59.82499991045621,
50,c,0,0,0,0,4,2,18,2,,,,,246.38319249999995,247.38389510000025,247.38389510000025,247.38389510000025,247.38389510000025,247.38389510000025,248.3829595000002,248.3829595000002,c,1,0.9120915999997123,None,01,001,2023-10-09_13h15.54.320,motorsequencelearning,2023.1.3,59.82499991045621,
-150,z,0,0,0,0,4,3,19,3,,,,,249.31566440000051,250.31588370000054,250.31588370000054,250.31588370000054,250.31588370000054,250.31588370000054,251.31520049999972,251.31520049999972,z,1,0.45780189999959475,None,01,001,2023-10-09_13h15.54.320,motorsequencelearning,2023.1.3,59.82499991045621,
-50,x,0,0,0,0,5,0,20,0,,,,,251.79808410000032,252.79711309999993,252.79711309999993,252.79711309999993,252.79711309999993,252.79711309999993,253.79774709999992,253.79774709999992,x,1,0.42880660000037096,None,01,001,2023-10-09_13h15.54.320,motorsequencelearning,2023.1.3,59.82499991045621,
150,v,0,0,0,0,5,1,21,1,,,,,254.24714020000056,255.24742730000025,255.24742730000025,255.24742730000025,255.24742730000025,255.24742730000025,256.24702600000046,256.24702600000046,v,1,0.4289721999998619,None,01,001,2023-10-09_13h15.54.320,motorsequencelearning,2023.1.3,59.82499991045621,
50,c,0,0,0,0,5,2,22,2,,,,,256.69628990000047,257.69569400000046,257.69569400000046,257.69569400000046,257.69569400000046,257.69569400000046,258.6963608000001,258.6963608000001,c,1,0.30598799999961557,None,01,001,2023-10-09_13h15.54.320,motorsequencelearning,2023.1.3,59.82499991045621,
-150,z,0,0,0,0,5,3,23,3,,,,,259.0292531,260.0295503000002,260.0295503000002,260.0295503000002,260.0295503000002,260.0295503000002,261.02882400000044,261.02882400000044,z,1,0.6090568999993593,None,01,001,2023-10-09_13h15.54.320,motorsequencelearning,2023.1.3,59.82499991045621,
-50,x,0,0,0,0,6,0,24,0,,,,,261.66139580000026,262.6620441,262.6620441,262.6620441,262.6620441,262.6620441,263.6617547999999,263.6617547999999,x,1,0.47021389999963503,None,01,001,2023-10-09_13h15.54.320,motorsequencelearning,2023.1.3,59.82499991045621,
150,v,0,0,0,0,6,1,25,1,,,,,264.1612686000003,265.1611523000006,265.1611523000006,265.1611523000006,265.1611523000006,265.1611523000006,266.1604732999999,266.1604732999999,v,1,0.4157609999997476,None,01,001,2023-10-09_13h15.54.320,motorsequencelearning,2023.1.3,59.82499991045621,
50,c,0,0,0,0,6,2,26,2,,,,,266.5930922000002,267.57739730000003,267.57739730000003,267.57739730000003,267.57739730000003,267.5934256000005,268.5927983000006,268.5927983000006,c,1,0.43554659999927026,None,01,001,2023-10-09_13h15.54.320,motorsequencelearning,2023.1.3,59.82499991045621,
-150,z,0,0,0,0,6,3,27,3,,,,,269.0592535999999,270.0594997000003,270.0594997000003,270.0594997000003,270.0594997000003,270.0594997000003,271.0595612000002,271.0595612000002,z,1,0.7345430000000306,None,01,001,2023-10-09_13h15.54.320,motorsequencelearning,2023.1.3,59.82499991045621,
-50,x,0,0,0,0,7,0,28,0,,,,,271.8253454999999,272.82446480000044,272.82446480000044,272.82446480000044,272.82446480000044,272.82446480000044,273.82416650000005,273.82416650000005,x,1,0.3629407000003084,None,01,001,2023-10-09_13h15.54.320,motorsequencelearning,2023.1.3,59.82499991045621,
150,v,0,0,0,0,7,1,29,1,,,,,274.2080410000003,275.2077067000005,275.2077067000005,275.2077067000005,275.2077067000005,275.2077067000005,276.20721150000054,276.20721150000054,v,1,0.4320173999999497,None,01,001,2023-10-09_13h15.54.320,motorsequencelearning,2023.1.3,59.82499991045621,
50,c,0,0,0,0,7,2,30,2,,,,,276.6573924999998,277.6569346000001,277.6569346000001,277.6569346000001,277.6569346000001,277.6569346000001,278.6565548000003,278.6565548000003,c,1,0.33446609999964494,None,01,001,2023-10-09_13h15.54.320,motorsequencelearning,2023.1.3,59.82499991045621,
-150,z,0,0,0,0,7,3,31,3,,,,,279.02300090000017,280.00639509999974,280.00639509999974,280.00639509999974,280.00639509999974,280.02260350000006,281.0225931,281.0225931,z,1,0.40918069999997897,None,01,001,2023-10-09_13h15.54.320,motorsequencelearning,2023.1.3,59.82499991045621,
-50,x,0,0,0,0,8,0,32,0,,,,,281.4556759000002,282.45479900000055,282.45479900000055,282.45479900000055,282.45479900000055,282.45479900000055,283.45561020000014,283.45561020000014,x,1,0.36909460000015315,None,01,001,2023-10-09_13h15.54.320,motorsequencelearning,2023.1.3,59.82499991045621,
150,v,0,0,0,0,8,1,33,1,,,,,283.85480810000035,284.8551676000002,284.8551676000002,284.8551676000002,284.8551676000002,284.8551676000002,285.8550334000006,285.8550334000006,v,1,0.47817390000045634,None,01,001,2023-10-09_13h15.54.320,motorsequencelearning,2023.1.3,59.82499991045621,
50,c,0,0,0,0,8,2,34,2,,,,,286.35446660000025,287.3543504000004,287.3543504000004,287.3543504000004,287.3543504000004,287.3543504000004,288.3535864999999,288.3535864999999,c,1,0.5580390999998599,None,01,001,2023-10-09_13h15.54.320,motorsequencelearning,2023.1.3,59.82499991045621,
-150,z,0,0,0,0,8,3,35,3,,,,,288.9362949000001,289.9374832999997,289.9374832999997,289.9374832999997,289.9374832999997,289.9374832999997,290.93598239999983,290.93598239999983,z,1,0.39370889999963765,None,01,001,2023-10-09_13h15.54.320,motorsequencelearning,2023.1.3,59.82499991045621,
-50,x,0,0,0,0,9,0,36,0,,,,,291.3524345000001,292.35224160000007,292.35224160000007,292.35224160000007,292.35224160000007,292.35224160000007,293.3519916,293.3519916,x,1,0.46665819999952873,None,01,001,2023-10-09_13h15.54.320,motorsequencelearning,2023.1.3,59.82499991045621,
150,v,0,0,0,0,9,1,37,1,,,,,293.83575429999973,294.83497360000047,294.83497360000047,294.83497360000047,294.83497360000047,294.83497360000047,295.8346267000002,295.8346267000002,v,1,0.5271303000004082,None,01,001,2023-10-09_13h15.54.320,motorsequencelearning,2023.1.3,59.82499991045621,
50,c,0,0,0,0,9,2,38,2,,,,,296.38452410000036,297.3674132000001,297.3674132000001,297.3674132000001,297.3674132000001,297.3841193000003,298.38349789999984,298.38349789999984,c,1,0.3278494999999566,None,01,001,2023-10-09_13h15.54.320,motorsequencelearning,2023.1.3,59.82499991045621,
-150,z,0,0,0,0,9,3,39,3,,,,,298.73375220000025,299.73400119999997,299.73400119999997,299.73400119999997,299.73400119999997,299.73400119999997,300.73294600000054,300.73294600000054,z,1,0.4005376999998589,None,01,001,2023-10-09_13h15.54.320,motorsequencelearning,2023.1.3,59.82499991045621,
-50,x,0,0,0,0,10,0,40,0,,,,,301.1664415,302.1670091000001,302.1670091000001,302.1670091000001,302.1670091000001,302.1670091000001,303.1650306000006,303.1650306000006,x,1,0.3929167999999663,None,01,001,2023-10-09_13h15.54.320,motorsequencelearning,2023.1.3,59.82499991045621,
150,v,0,0,0,0,10,1,41,1,,,,,303.5821122000002,304.5821834000003,304.5821834000003,304.5821834000003,304.5821834000003,304.5821834000003,305.5819392999997,305.5819392999997,v,1,0.5334133000001202,None,01,001,2023-10-09_13h15.54.320,motorsequencelearning,2023.1.3,59.82499991045621,
50,c,0,0,0,0,10,2,42,2,,,,,306.1477742000002,307.1484703000001,307.1484703000001,307.1484703000001,307.1484703000001,307.1484703000001,308.1472687999999,308.1472687999999,c,1,0.32137419999935446,None,01,001,2023-10-09_13h15.54.320,motorsequencelearning,2023.1.3,59.82499991045621,
-150,z,0,0,0,0,10,3,43,3,,,,,308.49752130000024,309.49710060000007,309.49710060000007,309.49710060000007,309.49710060000007,309.49710060000007,310.49685400000044,310.49685400000044,z,1,1.0875568000005842,None,01,001,2023-10-09_13h15.54.320,motorsequencelearning,2023.1.3,59.82499991045621,
-50,x,0,0,0,0,11,0,44,0,,,,,311.6133248000001,312.6129047999998,312.6129047999998,312.6129047999998,312.6129047999998,312.6129047999998,313.6125001000005,313.6125001000005,x,1,0.4295751000004202,None,01,001,2023-10-09_13h15.54.320,motorsequencelearning,2023.1.3,59.82499991045621,
150,v,0,0,0,0,11,1,45,1,,,,,314.0619999000005,315.06230060000007,315.06230060000007,315.06230060000007,315.06230060000007,315.06230060000007,316.07766740000034,316.07766740000034,v,1,0.46532129999968674,None,01,001,2023-10-09_13h15.54.320,motorsequencelearning,2023.1.3,59.82499991045621,
50,c,0,0,0,0,11,2,46,2,,,,,316.5618890999999,317.56098390000034,317.56098390000034,317.56098390000034,317.56098390000034,317.56098390000034,318.5606273999997,318.5606273999997,c,1,0.5363426000008076,None,01,001,2023-10-09_13h15.54.320,motorsequencelearning,2023.1.3,59.82499991045621,
-150,z,0,0,0,0,11,3,47,3,,,,,319.12739269999975,320.12699740000016,320.12699740000016,320.12699740000016,320.12699740000016,320.12699740000016,321.1269709000003,321.1269709000003,z,1,0.6786268000000746,None,01,001,2023-10-09_13h15.54.320,motorsequencelearning,2023.1.3,59.82499991045621,
-50,x,0,0,0,0,12,0,48,0,,,,,321.82683599999973,322.82549549999976,322.82549549999976,322.82549549999976,322.82549549999976,322.8425616999998,323.8262643000003,323.8262643000003,x,1,0.30600269999968077,None,01,001,2023-10-09_13h15.54.320,motorsequencelearning,2023.1.3,59.82499991045621,
150,v,0,0,0,0,12,1,49,1,,,,,324.1592857999999,325.15953240000044,325.15953240000044,325.15953240000044,325.15953240000044,325.15953240000044,326.1586769999999,326.1586769999999,v,1,0.36750160000019605,None,01,001,2023-10-09_13h15.54.320,motorsequencelearning,2023.1.3,59.82499991045621,
50,c,0,0,0,0,12,2,50,2,,,,,326.55800969999973,327.5572054999998,327.5572054999998,327.5572054999998,327.5572054999998,327.5759146000005,328.55786000000035,328.55786000000035,c,1,0.35357880000037767,None,01,001,2023-10-09_13h15.54.320,motorsequencelearning,2023.1.3,59.82499991045621,
-150,z,0,0,0,0,12,3,51,3,,,,,328.9409838000006,329.9407292000001,329.9407292000001,329.9407292000001,329.9407292000001,329.9407292000001,330.9407076000002,330.9407076000002,z,1,0.3983445999997457,None,01,001,2023-10-09_13h15.54.320,motorsequencelearning,2023.1.3,59.82499991045621,
-50,x,0,0,0,0,13,0,52,0,,,,,331.35754469999983,332.35766300000023,332.35766300000023,332.35766300000023,332.35766300000023,332.35766300000023,333.3567417999998,333.3567417999998,x,1,0.33795059999965815,None,01,001,2023-10-09_13h15.54.320,motorsequencelearning,2023.1.3,59.82499991045621,
150,v,0,0,0,0,13,1,53,1,,,,,333.72283019999986,334.7230543999999,334.7230543999999,334.7230543999999,334.7230543999999,334.7230543999999,335.7226880000003,335.7226880000003,v,1,0.4035409000002801,None,01,001,2023-10-09_13h15.54.320,motorsequencelearning,2023.1.3,59.82499991045621,
50,c,0,0,0,0,13,2,54,2,,,,,336.1731177000006,337.1730569000006,337.1730569000006,337.1730569000006,337.1730569000006,337.1730569000006,338.17083010000033,338.17083010000033,c,1,0.27180189999990034,None,01,001,2023-10-09_13h15.54.320,motorsequencelearning,2023.1.3,59.82499991045621,
-150,z,0,0,0,0,13,3,55,3,,,,,338.47089389999974,339.4713539999998,339.4713539999998,339.4713539999998,339.4713539999998,339.4713539999998,340.47083220000013,340.47083220000013,z,1,0.5597011000004386,None,01,001,2023-10-09_13h15.54.320,motorsequencelearning,2023.1.3,59.82499991045621,
-50,x,0,0,0,0,14,0,56,0,,,,,341.05441930000006,342.05428410000013,342.05428410000013,342.05428410000013,342.05428410000013,342.05428410000013,343.0525290999999,343.0525290999999,x,1,0.36308690000032584,None,01,001,2023-10-09_13h15.54.320,motorsequencelearning,2023.1.3,59.82499991045621,
150,v,0,0,0,0,14,1,57,1,,,,,343.4367072,344.4368639999998,344.4368639999998,344.4368639999998,344.4368639999998,344.4368639999998,345.43581380000023,345.43581380000023,v,1,0.43367069999976593,None,01,001,2023-10-09_13h15.54.320,motorsequencelearning,2023.1.3,59.82499991045621,
50,c,0,0,0,0,14,2,58,2,,,,,345.8860298000004,346.8864915999998,346.8864915999998,346.8864915999998,346.8864915999998,346.8864915999998,347.8849057000002,347.8849057000002,c,1,0.3029831999997441,None,01,001,2023-10-09_13h15.54.320,motorsequencelearning,2023.1.3,59.82499991045621,
-150,z,0,0,0,0,14,3,59,3,,,,,348.2177625999998,349.2176205999999,349.2176205999999,349.2176205999999,349.2176205999999,349.23470000000043,350.2180863999997,350.2180863999997,z,1,0.35434420000046885,None,01,001,2023-10-09_13h15.54.320,motorsequencelearning,2023.1.3,59.82499991045621,
-50,x,0,0,0,0,15,0,60,0,,,,,350.60083840000016,351.60132810000005,351.60132810000005,351.60132810000005,351.60132810000005,351.60132810000005,352.60031930000014,352.60031930000014,x,1,0.36135200000035184,None,01,001,2023-10-09_13h15.54.320,motorsequencelearning,2023.1.3,59.82499991045621,
150,v,0,0,0,0,15,1,61,1,,,,,352.98324580000053,353.9826231000002,353.9826231000002,353.9826231000002,353.9826231000002,353.9999799000002,354.9828938000005,354.9828938000005,v,1,0.4530644999999822,None,01,001,2023-10-09_13h15.54.320,motorsequencelearning,2023.1.3,59.82499991045621,
50,c,0,0,0,0,15,2,62,2,,,,,355.4669465000002,356.4658110000005,356.4658110000005,356.4658110000005,356.4658110000005,356.4824566000002,357.4652659999997,357.4652659999997,c,1,0.47737069999993764,None,01,001,2023-10-09_13h15.54.320,motorsequencelearning,2023.1.3,59.82499991045621,
-150,z,0,0,0,0,15,3,63,3,,,,,357.9645182999998,358.9654372,358.9654372,358.9654372,358.9654372,358.9654372,359.96493280000004,359.96493280000004,z,1,0.45611500000040905,None,01,001,2023-10-09_13h15.54.320,motorsequencelearning,2023.1.3,59.82499991045621,
-50,x,0,0,0,0,16,0,64,0,,,,,360.4478092000004,361.4485447000002,361.4485447000002,361.4485447000002,361.4485447000002,361.4485447000002,362.44702929999994,362.44702929999994,x,1,0.46881600000006074,None,01,001,2023-10-09_13h15.54.320,motorsequencelearning,2023.1.3,59.82499991045621,
150,v,0,0,0,0,16,1,65,1,,,,,362.947181,363.94588500000054,363.94588500000054,363.94588500000054,363.94588500000054,363.96397990000014,364.94714479999993,364.94714479999993,v,1,0.5215955000007853,None,01,001,2023-10-09_13h15.54.320,motorsequencelearning,2023.1.3,59.82499991045621,
50,c,0,0,0,0,16,2,66,2,,,,,365.4964352000002,366.4969732000004,366.4969732000004,366.4969732000004,366.4969732000004,366.4969732000004,367.49629630000027,367.49629630000027,c,1,0.35556010000027527,None,01,001,2023-10-09_13h15.54.320,motorsequencelearning,2023.1.3,59.82499991045621,
-150,z,0,0,0,0,16,3,67,3,,,,,367.8783941000006,368.8791649,368.8791649,368.8791649,368.8791649,368.8791649,369.87893829999985,369.87893829999985,z,1,0.6727461999994375,None,01,001,2023-10-09_13h15.54.320,motorsequencelearning,2023.1.3,59.82499991045621,
-50,x,0,0,0,0,17,0,68,0,,,,,370.57728309999993,371.57898539999997,371.57898539999997,371.57898539999997,371.57898539999997,371.57898539999997,372.56123720000005,372.56123720000005,x,1,0.32555790000014895,None,01,001,2023-10-09_13h15.54.320,motorsequencelearning,2023.1.3,59.82499991045621,
150,v,0,0,0,0,17,1,69,1,,,,,372.9102853999998,373.8945481000005,373.8945481000005,373.8945481000005,373.8945481000005,373.91060179999977,374.9106504000006,374.9106504000006,c,0,0.47397849999970276,None,01,001,2023-10-09_13h15.54.320,motorsequencelearning,2023.1.3,59.82499991045621,
50,c,0,0,0,0,17,2,70,2,,,,,375.41046460000007,376.41032920000043,376.41032920000043,376.41032920000043,376.41032920000043,376.41032920000043,377.4088686,377.4088686,v,0,0.7052785000000767,None,01,001,2023-10-09_13h15.54.320,motorsequencelearning,2023.1.3,59.82499991045621,
-150,z,0,0,0,0,17,3,71,3,,,,,378.14192670000057,379.12629979999974,379.12629979999974,379.12629979999974,379.12629979999974,379.1431297000004,380.1255487000003,380.1255487000003,z,1,1.871065400000134,None,01,001,2023-10-09_13h15.54.320,motorsequencelearning,2023.1.3,59.82499991045621,
-50,x,0,0,0,0,18,0,72,0,,,,,382.0243897000005,383.02389880000055,383.02389880000055,383.02389880000055,383.02389880000055,383.02389880000055,384.0239840999998,384.0239840999998,x,1,0.3914842999997745,None,01,001,2023-10-09_13h15.54.320,motorsequencelearning,2023.1.3,59.82499991045621,
150,v,0,0,0,0,18,1,73,1,,,,,384.44100279999975,385.4410923999999,385.4410923999999,385.4410923999999,385.4410923999999,385.4410923999999,386.4403231000001,386.4403231000001,v,1,0.3959554999996726,None,01,001,2023-10-09_13h15.54.320,motorsequencelearning,2023.1.3,59.82499991045621,
50,c,0,0,0,0,18,2,74,2,,,,,386.8562826000002,387.85603519999995,387.85603519999995,387.85603519999995,387.85603519999995,387.85603519999995,388.85622120000016,388.85622120000016,c,1,0.5842665000004672,None,01,001,2023-10-09_13h15.54.320,motorsequencelearning,2023.1.3,59.82499991045621,
-150,z,0,0,0,0,18,3,75,3,,,,,389.47219150000046,390.47269970000025,390.47269970000025,390.47269970000025,390.47269970000025,390.47269970000025,391.47174570000016,391.47174570000016,z,1,0.5582553999997799,None,01,001,2023-10-09_13h15.54.320,motorsequencelearning,2023.1.3,59.82499991045621,
-50,x,0,0,0,0,19,0,76,0,,,,,392.0546667000003,393.0537608999998,393.0537608999998,393.0537608999998,393.0537608999998,393.0537608999998,394.0543647999998,394.0543647999998,x,1,0.5615776999998161,None,01,001,2023-10-09_13h15.54.320,motorsequencelearning,2023.1.3,59.82499991045621,
150,v,0,0,0,0,19,1,77,1,,,,,394.6374861999998,395.63707699999986,395.63707699999986,395.63707699999986,395.63707699999986,395.63707699999986,396.6371500999999,396.6371500999999,v,1,0.4644522000003235,None,01,001,2023-10-09_13h15.54.320,motorsequencelearning,2023.1.3,59.82499991045621,
50,c,0,0,0,0,19,2,78,2,,,,,397.12002859999984,398.11884750000036,398.11884750000036,398.11884750000036,398.11884750000036,398.11884750000036,399.1199066000004,399.1199066000004,c,1,0.46203880000075515,None,01,001,2023-10-09_13h15.54.320,motorsequencelearning,2023.1.3,59.82499991045621,
-150,z,0,0,0,0,19,3,79,3,,,,,399.60205390000056,400.6017622000004,400.6017622000004,400.6017622000004,400.6017622000004,400.6017622000004,401.6018436999998,401.6018436999998,z,1,0.6201726999993298,None,01,001,2023-10-09_13h15.54.320,motorsequencelearning,2023.1.3,59.82499991045621,
-50,x,0,0,0,0,20,0,80,0,,,,,402.2517714999999,403.2512861,403.2512861,403.2512861,403.2512861,403.2512861,404.2512556000006,404.2512556000006,x,1,0.4165643999999702,None,01,001,2023-10-09_13h15.54.320,motorsequencelearning,2023.1.3,59.82499991045621,
150,v,0,0,0,0,20,1,81,1,,,,,404.7005955999998,405.7003129999998,405.7003129999998,405.7003129999998,405.7003129999998,405.7003129999998,406.70064690000027,406.70064690000027,v,1,0.3861329000005753,None,01,001,2023-10-09_13h15.54.320,motorsequencelearning,2023.1.3,59.82499991045621,
50,c,0,0,0,0,20,2,82,2,,,,,407.11712860000034,408.1158111999998,408.1158111999998,408.1158111999998,408.1158111999998,408.1331388000003,409.11664580000024,409.11664580000024,c,1,0.4571995999999672,None,01,001,2023-10-09_13h15.54.320,motorsequencelearning,2023.1.3,59.82499991045621,
-150,z,0,0,0,0,20,3,83,3,,,,,409.5992587000005,410.59943599999997,410.59943599999997,410.59943599999997,410.59943599999997,410.59943599999997,411.5993469,411.5993469,z,1,0.4390691000003244,None,01,001,2023-10-09_13h15.54.320,motorsequencelearning,2023.1.3,59.82499991045621,
-50,x,0,0,0,0,21,0,84,0,,,,,412.0650490000003,413.06441719999975,413.06441719999975,413.06441719999975,413.06441719999975,413.06441719999975,414.06511830000045,414.06511830000045,x,1,0.657604800000172,None,01,001,2023-10-09_13h15.54.320,motorsequencelearning,2023.1.3,59.82499991045621,
150,v,0,0,0,0,21,1,85,1,,,,,414.7479175000003,415.7472641999998,415.7472641999998,415.7472641999998,415.7472641999998,415.7472641999998,416.74757139999974,416.74757139999974,v,1,0.5544748999996045,None,01,001,2023-10-09_13h15.54.320,motorsequencelearning,2023.1.3,59.82499991045621,
50,c,0,0,0,0,21,2,86,2,,,,,417.33064140000033,418.33067750000055,418.33067750000055,418.33067750000055,418.33067750000055,418.33067750000055,419.3303742000003,419.3303742000003,c,1,0.4922827999994297,None,01,001,2023-10-09_13h15.54.320,motorsequencelearning,2023.1.3,59.82499991045621,
-150,z,0,0,0,0,21,3,87,3,,,,,419.84630890000017,420.84593710000036,420.84593710000036,420.84593710000036,420.84593710000036,420.84593710000036,421.84552720000056,421.84552720000056,z,1,0.7486569999996391,None,01,001,2023-10-09_13h15.54.320,motorsequencelearning,2023.1.3,59.82499991045621,
-50,x,0,0,0,0,22,0,88,0,,,,,422.61199090000036,423.61255570000003,423.61255570000003,423.61255570000003,423.61255570000003,423.61255570000003,424.6117025999997,424.6117025999997,x,1,0.9249021000000539,None,01,001,2023-10-09_13h15.54.320,motorsequencelearning,2023.1.3,59.82499991045621,
150,v,0,0,0,0,22,1,89,1,,,,,425.5612646000004,426.5787513,426.5787513,426.5787513,426.5787513,426.5787513,427.56084690000034,427.56084690000034,v,1,0.4671173000001545,None,01,001,2023-10-09_13h15.54.320,motorsequencelearning,2023.1.3,59.82499991045621,
50,c,0,0,0,0,22,2,90,2,,,,,428.0597008,429.04382680000026,429.04382680000026,429.04382680000026,429.04382680000026,429.06028470000047,430.0593539000006,430.0593539000006,c,1,0.4731485999996039,None,01,001,2023-10-09_13h15.54.320,motorsequencelearning,2023.1.3,59.82499991045621,
-150,z,0,0,0,0,22,3,91,3,,,,,430.55977050000047,431.5600234999997,431.5600234999997,431.5600234999997,431.5600234999997,431.5600234999997,432.5592827000005,432.5592827000005,z,1,0.45779910000010204,None,01,001,2023-10-09_13h15.54.320,motorsequencelearning,2023.1.3,59.82499991045621,
-50,x,0,0,0,0,23,0,92,0,,,,,433.04124939999974,434.0406460999998,434.0406460999998,434.0406460999998,434.0406460999998,434.05859720000035,435.0253512000004,435.0253512000004,x,1,0.5547599999995327,None,01,001,2023-10-09_13h15.54.320,motorsequencelearning,2023.1.3,59.82499991045621,
150,v,0,0,0,0,23,1,93,1,,,,,435.6080149000004,436.6079609000003,436.6079609000003,436.6079609000003,436.6079609000003,436.6079609000003,437.6079757000002,437.6079757000002,v,1,0.6022678000003907,None,01,001,2023-10-09_13h15.54.320,motorsequencelearning,2023.1.3,59.82499991045621,
50,c,0,0,0,0,23,2,94,2,,,,,438.24006990000044,439.2405373000006,439.2405373000006,439.2405373000006,439.2405373000006,439.2405373000006,440.2397253000004,440.2397253000004,c,1,0.39798649999966074,None,01,001,2023-10-09_13h15.54.320,motorsequencelearning,2023.1.3,59.82499991045621,
-150,z,0,0,0,0,23,3,95,3,,,,,440.6563153000002,441.657095,441.657095,441.657095,441.657095,441.657095,442.65568050000047,442.65568050000047,z,1,0.41850919999933467,None,01,001,2023-10-09_13h15.54.320,motorsequencelearning,2023.1.3,59.82499991045621,
-50,x,0,0,0,0,24,0,96,0,,,,,443.1049576999999,444.0896539999999,444.0896539999999,444.0896539999999,444.0896539999999,444.10600960000056,445.10506380000015,445.10506380000015,x,1,0.39322690000017246,None,01,001,2023-10-09_13h15.54.320,motorsequencelearning,2023.1.3,59.82499991045621,
150,v,0,0,0,0,24,1,97,1,,,,,445.5215579999999,446.5220036000005,446.5220036000005,446.5220036000005,446.5220036000005,446.5220036000005,447.52185150000014,447.52185150000014,v,1,0.4116282999998475,None,01,001,2023-10-09_13h15.54.320,motorsequencelearning,2023.1.3,59.82499991045621,
50,c,0,0,0,0,24,2,98,2,,,,,447.9540013999999,448.9541599999998,448.9541599999998,448.9541599999998,448.9541599999998,448.9541599999998,449.95373880000034,449.95373880000034,c,1,0.48982289999958084,None,01,001,2023-10-09_13h15.54.320,motorsequencelearning,2023.1.3,59.82499991045621,
-150,z,0,0,0,0,24,3,99,3,,,,,450.47010569999975,451.4540086000002,451.4540086000002,451.4540086000002,451.4540086000002,451.46990959999994,452.4697245000002,452.4697245000002,z,1,0.46340809999992416,None,01,001,2023-10-09_13h15.54.320,motorsequencelearning,2023.1.3,59.82499991045621,
-50,x,0,0,0,0,25,0,100,0,,,,,452.95185400000037,453.93613740000046,453.93613740000046,453.93613740000046,453.93613740000046,453.9523426999999,454.95203600000013,454.95203600000013,x,1,0.7455451000000721,None,01,001,2023-10-09_13h15.54.320,motorsequencelearning,2023.1.3,59.82499991045621,
150,v,0,0,0,0,25,1,101,1,,,,,455.71873430000005,456.70186070000045,456.70186070000045,456.70186070000045,456.70186070000045,456.7182200000002,457.71692570000005,457.71692570000005,v,1,0.5169576000002962,None,01,001,2023-10-09_13h15.54.320,motorsequencelearning,2023.1.3,59.82499991045621,
50,c,0,0,0,0,25,2,102,2,,,,,458.25097849999975,459.23441649999995,459.23441649999995,459.23441649999995,459.23441649999995,459.25087099999973,460.2504277000003,460.2504277000003,c,1,0.6305176999999276,None,01,001,2023-10-09_13h15.54.320,motorsequencelearning,2023.1.3,59.82499991045621,
-150,z,0,0,0,0,25,3,103,3,,,,,460.90032329999985,461.9007034000001,461.9007034000001,461.9007034000001,461.9007034000001,461.9007034000001,462.8992447000005,462.8992447000005,z,1,0.646006600000419,None,01,001,2023-10-09_13h15.54.320,motorsequencelearning,2023.1.3,59.82499991045621,
-50,x,0,0,0,0,26,0,104,0,,,,,463.5654830999997,464.5498773000004,464.5498773000004,464.5498773000004,464.5498773000004,464.5663657,465.56521740000017,465.56521740000017,x,1,0.4982005000006211,None,01,001,2023-10-09_13h15.54.320,motorsequencelearning,2023.1.3,59.82499991045621,
150,v,0,0,0,0,26,1,105,1,,,,,466.0824146,467.08295709999993,467.08295709999993,467.08295709999993,467.08295709999993,467.08295709999993,468.0814114,468.0814114,v,1,0.42891800000006697,None,01,001,2023-10-09_13h15.54.320,motorsequencelearning,2023.1.3,59.82499991045621,
50,c,0,0,0,0,26,2,106,2,,,,,468.5310153000005,469.52991620000057,469.52991620000057,469.52991620000057,469.52991620000057,469.54761590000044,470.5303909999998,470.5303909999998,c,1,0.4409863999994741,None,01,001,2023-10-09_13h15.54.320,motorsequencelearning,2023.1.3,59.82499991045621,
-150,z,0,0,0,0,26,3,107,3,,,,,470.99679200000037,471.9974530000004,471.9974530000004,471.9974530000004,471.9974530000004,471.9974530000004,472.99577309999995,472.99577309999995,z,1,0.6889849000003778,None,01,001,2023-10-09_13h15.54.320,motorsequencelearning,2023.1.3,59.82499991045621,
-50,x,0,0,0,0,27,0,108,0,,,,,473.71247809999977,474.7132876999999,474.7132876999999,474.7132876999999,474.7132876999999,474.7132876999999,475.7130865000004,475.7130865000004,x,1,0.8042006999999103,None,01,001,2023-10-09_13h15.54.320,motorsequencelearning,2023.1.3,59.82499991045621,
150,v,0,0,0,0,27,1,109,1,,,,,476.54556470000034,477.5453418000002,477.5453418000002,477.5453418000002,477.5453418000002,477.5453418000002,478.54551370000036,478.54551370000036,v,1,0.3876588999996784,None,01,001,2023-10-09_13h15.54.320,motorsequencelearning,2023.1.3,59.82499991045621,
50,c,0,0,0,0,27,2,110,2,,,,,478.9614277000005,479.96169770000006,479.96169770000006,479.96169770000006,479.96169770000006,479.96169770000006,480.9612787000001,480.9612787000001,c,1,0.5824272999993809,None,01,001,2023-10-09_13h15.54.320,motorsequencelearning,2023.1.3,59.82499991045621,
-150,z,0,0,0,0,27,3,111,3,,,,,481.56066150000015,482.56076470000016,482.56076470000016,482.56076470000016,482.56076470000016,482.56076470000016,483.5601234999999,483.5601234999999,z,1,0.6622304999996231,None,01,001,2023-10-09_13h15.54.320,motorsequencelearning,2023.1.3,59.82499991045621,
-50,x,0,0,0,0,28,0,112,0,,,,,484.2428795000001,485.2433997000003,485.2433997000003,485.2433997000003,485.2433997000003,485.2433997000003,486.24303830000053,486.24303830000053,x,1,0.5655965999999353,None,01,001,2023-10-09_13h15.54.320,motorsequencelearning,2023.1.3,59.82499991045621,
150,v,0,0,0,0,28,1,113,1,,,,,486.82544689999986,487.8244817,487.8244817,487.8244817,487.8244817,487.8244817,488.8250750000002,488.8250750000002,v,1,0.5610062000000653,None,01,001,2023-10-09_13h15.54.320,motorsequencelearning,2023.1.3,59.82499991045621,
50,c,0,0,0,0,28,2,114,2,,,,,489.4080939999999,490.42346880000014,490.42346880000014,490.42346880000014,490.42346880000014,490.42346880000014,491.4075284000005,491.4075284000005,c,1,0.43392480000011346,None,01,001,2023-10-09_13h15.54.320,motorsequencelearning,2023.1.3,59.82499991045621,
-150,z,0,0,0,0,28,3,115,3,,,,,491.87420880000036,492.87328279999974,492.87328279999974,492.87328279999974,492.87328279999974,492.87328279999974,493.87356279999995,493.87356279999995,z,1,0.9232768999995642,None,01,001,2023-10-09_13h15.54.320,motorsequencelearning,2023.1.3,59.82499991045621,
-50,x,0,0,0,0,29,0,116,0,,,,,494.82295230000045,495.8392872999998,495.8392872999998,495.8392872999998,495.8392872999998,495.8392872999998,496.82274220000045,496.82274220000045,x,1,0.5387750999993841,None,01,001,2023-10-09_13h15.54.320,motorsequencelearning,2023.1.3,59.82499991045621,
150,v,0,0,0,0,29,1,117,1,,,,,497.38896780000005,498.3884979999998,498.3884979999998,498.3884979999998,498.3884979999998,498.3884979999998,499.38849489999984,499.38849489999984,v,1,0.468746199999714,None,01,001,2023-10-09_13h15.54.320,motorsequencelearning,2023.1.3,59.82499991045621,
50,c,0,0,0,0,29,2,118,2,,,,,499.8878328000005,500.88693470000044,500.88693470000044,500.88693470000044,500.88693470000044,500.9048249000002,501.8877941000005,501.8877941000005,c,1,0.5378192000002855,None,01,001,2023-10-09_13h15.54.320,motorsequencelearning,2023.1.3,59.82499991045621,
-150,z,0,0,0,0,29,3,119,3,,,,,502.4538881000003,503.4532389000001,503.4532389000001,503.4532389000001,503.4532389000001,503.4715382999998,504.4540542999998,504.4540542999998,z,1,0.3515416000004734,None,01,001,2023-10-09_13h15.54.320,motorsequencelearning,2023.1.3,59.82499991045621,
-50,x,0,0,0,0,30,0,120,0,,,,,504.8366467000001,505.85213950000025,505.85213950000025,505.85213950000025,505.85213950000025,505.85213950000025,506.83584999999994,506.83584999999994,x,1,0.49677899999960573,None,01,001,2023-10-09_13h15.54.320,motorsequencelearning,2023.1.3,59.82499991045621,
150,v,0,0,0,0,30,1,121,1,,,,,507.35260570000037,508.35262850000026,508.35262850000026,508.35262850000026,508.35262850000026,508.35262850000026,509.35199000000057,509.35199000000057,v,1,0.3853516000003765,None,01,001,2023-10-09_13h15.54.320,motorsequencelearning,2023.1.3,59.82499991045621,
50,c,0,0,0,0,30,2,122,2,,,,,509.7680497000006,510.7676800000004,510.7676800000004,510.7676800000004,510.7676800000004,510.785163,511.76764049999974,511.76764049999974,c,1,0.3340848000002552,None,01,001,2023-10-09_13h15.54.320,motorsequencelearning,2023.1.3,59.82499991045621,
-150,z,0,0,0,0,30,3,123,3,,,,,512.1342288999999,513.1337845000003,513.1337845000003,513.1337845000003,513.1337845000003,513.1337845000003,514.1335343000005,514.1335343000005,z,1,0.4904903000001468,None,01,001,2023-10-09_13h15.54.320,motorsequencelearning,2023.1.3,59.82499991045621,
-50,x,0,0,0,0,31,0,124,0,,,,,514.6506835000005,515.6504626999999,515.6504626999999,515.6504626999999,515.6504626999999,515.6504626999999,516.6507187000002,516.6507187000002,x,1,0.5856056999996326,None,01,001,2023-10-09_13h15.54.320,motorsequencelearning,2023.1.3,59.82499991045621,
150,v,0,0,0,0,31,1,125,1,,,,,517.2661578000002,518.2659368,518.2659368,518.2659368,518.2659368,518.2659368,519.2659331999998,519.2659331999998,v,1,0.4614114000000882,None,01,001,2023-10-09_13h15.54.320,motorsequencelearning,2023.1.3,59.82499991045621,
50,c,0,0,0,0,31,2,126,2,,,,,519.7485036000003,520.7482487000002,520.7482487000002,520.7482487000002,520.7482487000002,520.7664123,521.7480201000003,521.7480201000003,c,1,0.4886650000003101,None,01,001,2023-10-09_13h15.54.320,motorsequencelearning,2023.1.3,59.82499991045621,
-150,z,0,0,0,0,31,3,127,3,,,,,522.2649062000005,523.2649094000003,523.2649094000003,523.2649094000003,523.2649094000003,523.2649094000003,524.2641605000003,524.2641605000003,z,1,0.43662799999992785,None,01,001,2023-10-09_13h15.54.320,motorsequencelearning,2023.1.3,59.82499991045621,
-50,x,0,0,0,0,32,0,128,0,,,,,524.7303652000005,525.7299797999999,525.7299797999999,525.7299797999999,525.7299797999999,525.7299797999999,526.7298072999997,526.7298072999997,x,1,0.46293760000071416,None,01,001,2023-10-09_13h15.54.320,motorsequencelearning,2023.1.3,59.82499991045621,
150,v,0,0,0,0,32,1,129,1,,,,,527.2129307999999,528.2123949000002,528.2123949000002,528.2123949000002,528.2123949000002,528.2123949000002,529.21272,529.21272,v,1,0.3853966000001492,None,01,001,2023-10-09_13h15.54.320,motorsequencelearning,2023.1.3,59.82499991045621,
50,c,0,0,0,0,32,2,130,2,,,,,529.6290861000002,530.6297939000001,530.6297939000001,530.6297939000001,530.6297939000001,530.6297939000001,531.6284351999998,531.6284351999998,c,1,0.7339976999996907,None,01,001,2023-10-09_13h15.54.320,motorsequencelearning,2023.1.3,59.82499991045621,
-150,z,0,0,0,0,32,3,131,3,,,,,532.3947952000003,533.3782105000005,533.3782105000005,533.3782105000005,533.3782105000005,533.3951333,534.3949155000005,534.3949155000005,z,1,0.33936019999919154,None,01,001,2023-10-09_13h15.54.320,motorsequencelearning,2023.1.3,59.82499991045621,
-50,x,0,0,0,0,33,0,132,0,,,,,534.7609087000005,535.7603565000004,535.7603565000004,535.7603565000004,535.7603565000004,535.7603565000004,536.7607457999998,536.7607457999998,x,1,0.41313320000017484,None,01,001,2023-10-09_13h15.54.320,motorsequencelearning,2023.1.3,59.82499991045621,
150,v,0,0,0,0,33,1,133,1,,,,,537.1936907000004,538.1927019999998,538.1927019999998,538.1927019999998,538.1927019999998,538.1927019999998,539.1935600000002,539.1935600000002,v,1,0.48600779999969745,None,01,001,2023-10-09_13h15.54.320,motorsequencelearning,2023.1.3,59.82499991045621,
50,c,0,0,0,0,33,2,134,2,,,,,539.7091049000005,540.7096631,540.7096631,540.7096631,540.7096631,540.7096631,541.7085754000004,541.7085754000004,c,1,0.6898317000000134,None,01,001,2023-10-09_13h15.54.320,motorsequencelearning,2023.1.3,59.82499991045621,
-150,z,0,0,0,0,33,3,135,3,,,,,542.4251502000002,543.4254627000005,543.4254627000005,543.4254627000005,543.4254627000005,543.4254627000005,544.4240521000006,544.4240521000006,z,1,0.42690149999953064,None,01,001,2023-10-09_13h15.54.320,motorsequencelearning,2023.1.3,59.82499991045621,
-50,x,0,0,0,0,34,0,136,0,,,,,544.8749426999998,545.8748965,545.8748965,545.8748965,545.8748965,545.8748965,546.8739036000002,546.8739036000002,x,1,0.585356199999751,None,01,001,2023-10-09_13h15.54.320,motorsequencelearning,2023.1.3,59.82499991045621,
150,v,0,0,0,0,34,1,137,1,,,,,547.4899574000005,548.4896490000006,548.4896490000006,548.4896490000006,548.4896490000006,548.4896490000006,549.4893838000003,549.4893838000003,v,1,0.4669375999997101,None,01,001,2023-10-09_13h15.54.320,motorsequencelearning,2023.1.3,59.82499991045621,
50,c,0,0,0,0,34,2,138,2,,,,,549.9729086000002,550.9731612,550.9731612,550.9731612,550.9731612,550.9731612,551.9719931000004,551.9719931000004,c,1,0.4155351000003975,None,01,001,2023-10-09_13h15.54.320,motorsequencelearning,2023.1.3,59.82499991045621,
-150,z,0,0,0,0,34,3,139,3,,,,,552.4058637000003,553.4055801999998,553.4055801999998,553.4055801999998,553.4055801999998,553.4055801999998,554.4052106000004,554.4052106000004,z,1,0.4480034000002888,None,01,001,2023-10-09_13h15.54.320,motorsequencelearning,2023.1.3,59.82499991045621,
-50,x,0,0,0,0,35,0,140,0,,,,,554.8717658999999,555.8710476000001,555.8710476000001,555.8710476000001,555.8710476000001,555.8710476000001,556.870461,556.870461,x,1,0.7572504000004301,None,01,001,2023-10-09_13h15.54.320,motorsequencelearning,2023.1.3,59.82499991045621,
150,v,0,0,0,0,35,1,141,1,,,,,557.6533838999999,558.6539771000002,558.6539771000002,558.6539771000002,558.6539771000002,558.6539771000002,559.6531841000001,559.6531841000001,v,1,0.558647800000017,None,01,001,2023-10-09_13h15.54.320,motorsequencelearning,2023.1.3,59.82499991045621,
50,c,0,0,0,0,35,2,142,2,,,,,560.2360644000005,561.2365230999999,561.2365230999999,561.2365230999999,561.2365230999999,561.2365230999999,562.2359498999999,562.2359498999999,c,1,0.3616809000000103,None,01,001,2023-10-09_13h15.54.320,motorsequencelearning,2023.1.3,59.82499991045621,
-150,z,0,0,0,0,35,3,143,3,,,,,562.6192560000004,563.6194087999997,563.6194087999997,563.6194087999997,563.6194087999997,563.6194087999997,564.6177552000004,564.6177552000004,z,1,0.6349464999998418,None,01,001,2023-10-09_13h15.54.320,motorsequencelearning,2023.1.3,59.82499991045621,
-50,x,0,0,0,0,36,0,144,0,,,,,565.2841048000005,566.2683128000003,566.2683128000003,566.2683128000003,566.2683128000003,566.2849351,567.2837923000002,567.2837923000002,x,1,0.7012712999999167,None,01,001,2023-10-09_13h15.54.320,motorsequencelearning,2023.1.3,59.82499991045621,
150,v,0,0,0,0,36,1,145,1,,,,,568.0174803000004,569.0006193000004,569.0006193000004,569.0006193000004,569.0006193000004,569.0170825999999,570.0167723999998,570.0167723999998,v,1,0.8098427999998421,None,01,001,2023-10-09_13h15.54.320,motorsequencelearning,2023.1.3,59.82499991045621,
50,c,0,0,0,0,36,2,146,2,,,,,570.8495131000004,571.8504403000002,571.8504403000002,571.8504403000002,571.8504403000002,571.8504403000002,572.8483535999999,572.8483535999999,c,1,0.5344512999995459,None,01,001,2023-10-09_13h15.54.320,motorsequencelearning,2023.1.3,59.82499991045621,
-150,z,0,0,0,0,36,3,147,3,,,,,573.3991867999998,574.4146089999999,574.4146089999999,574.4146089999999,574.4146089999999,574.4146089999999,575.3984495999998,575.3984495999998,z,1,0.45480520000046454,None,01,001,2023-10-09_13h15.54.320,motorsequencelearning,2023.1.3,59.82499991045621,
-50,x,0,0,0,0,37,0,148,0,,,,,575.8814869000003,576.8811104000001,576.8811104000001,576.8811104000001,576.8811104000001,576.8811104000001,577.8800827,577.8800827,x,1,0.5728503999994246,None,01,001,2023-10-09_13h15.54.320,motorsequencelearning,2023.1.3,59.82499991045621,
150,v,0,0,0,0,37,1,149,1,,,,,578.4806918999998,579.4801214000004,579.4801214000004,579.4801214000004,579.4801214000004,579.4801214000004,580.4795815000002,580.4795815000002,v,1,0.4151606999998876,None,01,001,2023-10-09_13h15.54.320,motorsequencelearning,2023.1.3,59.82499991045621,
50,c,0,0,0,0,37,2,150,2,,,,,580.9132560000003,581.9129312999999,581.9129312999999,581.9129312999999,581.9129312999999,581.9129312999999,582.9118284000001,582.9118284000001,c,1,0.552874200000133,None,01,001,2023-10-09_13h15.54.320,motorsequencelearning,2023.1.3,59.82499991045621,
-150,z,0,0,0,0,37,3,151,3,,,,,583.4957385000002,584.5118205000003,584.5118205000003,584.5118205000003,584.5118205000003,584.5118205000003,585.4956317000001,585.4956317000001,z,1,0.3912075000002915,None,01,001,2023-10-09_13h15.54.320,motorsequencelearning,2023.1.3,59.82499991045621,
-50,x,0,0,0,0,38,0,152,0,,,,,585.9117221000001,586.9109165000004,586.9109165000004,586.9109165000004,586.9109165000004,586.9109165000004,587.9103140000002,587.9103140000002,x,1,0.5139150999998492,None,01,001,2023-10-09_13h15.54.320,motorsequencelearning,2023.1.3,59.82499991045621,
150,v,0,0,0,0,38,1,153,1,,,,,588.4436836,589.4444067,589.4444067,589.4444067,589.4444067,589.4444067,590.4438796,590.4438796,v,1,0.5679384999998547,None,01,001,2023-10-09_13h15.54.320,motorsequencelearning,2023.1.3,59.82499991045621,
50,c,0,0,0,0,38,2,154,2,,,,,591.0432943999999,592.0432071999999,592.0432071999999,592.0432071999999,592.0432071999999,592.0432071999999,593.0420874000006,593.0420874000006,c,1,0.5186418999996931,None,01,001,2023-10-09_13h15.54.320,motorsequencelearning,2023.1.3,59.82499991045621,
-150,z,0,0,0,0,38,3,155,3,,,,,593.5923385000001,594.5915858000003,594.5915858000003,594.5915858000003,594.5915858000003,594.6089918000002,595.5926040999998,595.5926040999998,z,1,0.6045942999994622,None,01,001,2023-10-09_13h15.54.320,motorsequencelearning,2023.1.3,59.82499991045621,
-50,x,0,0,0,0,39,0,156,0,,,,,596.2251191999999,597.226228,597.226228,597.226228,597.226228,597.226228,598.2241995999998,598.2241995999998,x,1,0.6115327000002253,None,01,001,2023-10-09_13h15.54.320,motorsequencelearning,2023.1.3,59.82499991045621,
150,v,0,0,0,0,39,1,157,1,,,,,598.8579999999997,599.8578498000002,599.8578498000002,599.8578498000002,599.8578498000002,599.8578498000002,600.8567150000003,600.8567150000003,v,1,0.6052125999999589,None,01,001,2023-10-09_13h15.54.320,motorsequencelearning,2023.1.3,59.82499991045621,
50,c,0,0,0,0,39,2,158,2,,,,,601.4905547000003,602.4903962000003,602.4903962000003,602.4903962000003,602.4903962000003,602.4903962000003,603.4896983000003,603.4896983000003,c,1,0.5468479000005573,None,01,001,2023-10-09_13h15.54.320,motorsequencelearning,2023.1.3,59.82499991045621,
-150,z,0,0,0,0,39,3,159,3,,,,,604.0557537999998,605.0558197000005,605.0558197000005,605.0558197000005,605.0558197000005,605.0558197000005,606.0548555999999,606.0548555999999,z,1,0.3904795000003105,None,01,001,2023-10-09_13h15.54.320,motorsequencelearning,2023.1.3,59.82499991045621,
-50,x,0,0,0,0,40,0,160,0,,,,,606.4721045000001,607.4725700000004,607.4725700000004,607.4725700000004,607.4725700000004,607.4725700000004,608.4714349000001,608.4714349000001,x,1,0.6548459999999068,None,01,001,2023-10-09_13h15.54.320,motorsequencelearning,2023.1.3,59.82499991045621,
150,v,0,0,0,0,40,1,161,1,,,,,609.1541352999998,610.1544633999997,610.1544633999997,610.1544633999997,610.1544633999997,610.1544633999997,611.1542750000003,611.1542750000003,v,1,0.39984860000049594,None,01,001,2023-10-09_13h15.54.320,motorsequencelearning,2023.1.3,59.82499991045621,
50,c,0,0,0,0,40,2,162,2,,,,,611.5867562999997,612.5856522999998,612.5856522999998,612.5856522999998,612.5856522999998,612.6033841000003,613.5855152999998,613.5855152999998,c,1,0.5467772000006335,None,01,001,2023-10-09_13h15.54.320,motorsequencelearning,2023.1.3,59.82499991045621,
-150,z,0,0,0,0,40,3,163,3,,,,,614.1525149000004,615.1521041000001,615.1521041000001,615.1521041000001,615.1521041000001,615.1521041000001,616.1524946000004,616.1524946000004,z,1,0.4723556000003555,None,01,001,2023-10-09_13h15.54.320,motorsequencelearning,2023.1.3,59.82499991045621,
-50,x,0,0,0,0,41,0,164,0,,,,,616.6518099999998,617.6675958000001,617.6675958000001,617.6675958000001,617.6675958000001,617.6675958000001,618.6514732,618.6514732,x,1,0.5694531000003735,None,01,001,2023-10-09_13h15.54.320,motorsequencelearning,2023.1.3,59.82499991045621,
150,v,0,0,0,0,41,1,165,1,,,,,619.2513137000001,620.2514839,620.2514839,620.2514839,620.2514839,620.2514839,621.2511424999998,621.2511424999998,v,1,0.6784317000006013,None,01,001,2023-10-09_13h15.54.320,motorsequencelearning,2023.1.3,59.82499991045621,
50,c,0,0,0,0,41,2,166,2,,,,,621.9502953000006,622.9506560000004,622.9506560000004,622.9506560000004,622.9506560000004,622.9506560000004,623.9497759999999,623.9497759999999,c,1,0.4730678999999327,None,01,001,2023-10-09_13h15.54.320,motorsequencelearning,2023.1.3,59.82499991045621,
-150,z,0,0,0,0,41,3,167,3,,,,,624.4497218000001,625.4497839999999,625.4497839999999,625.4497839999999,625.4497839999999,625.4497839999999,626.4492981999997,626.4492981999997,z,1,0.38415630000008605,None,01,001,2023-10-09_13h15.54.320,motorsequencelearning,2023.1.3,59.82499991045621,
-50,x,0,0,0,0,42,0,168,0,,,,,626.8654247,627.8653642000004,627.8653642000004,627.8653642000004,627.8653642000004,627.8653642000004,628.8649140000002,628.8649140000002,x,1,0.4413840000001983,None,01,001,2023-10-09_13h15.54.320,motorsequencelearning,2023.1.3,59.82499991045621,
150,v,0,0,0,0,42,1,169,1,,,,,629.3313756000002,630.3316713999998,630.3316713999998,630.3316713999998,630.3316713999998,630.3316713999998,631.3308658000001,631.3308658000001,v,1,0.4241978000004565,None,01,001,2023-10-09_13h15.54.320,motorsequencelearning,2023.1.3,59.82499991045621,
50,c,0,0,0,0,42,2,170,2,,,,,631.7808030000001,632.7799488000005,632.7799488000005,632.7799488000005,632.7799488000005,632.7799488000005,633.7807362999997,633.7807362999997,c,1,0.5086882000000514,None,01,001,2023-10-09_13h15.54.320,motorsequencelearning,2023.1.3,59.82499991045621,
-150,z,0,0,0,0,42,3,171,3,,,,,634.3129694000004,635.3130404999997,635.3130404999997,635.3130404999997,635.3130404999997,635.3130404999997,636.3124995000003,636.3124995000003,z,1,0.4845196000001124,None,01,001,2023-10-09_13h15.54.320,motorsequencelearning,2023.1.3,59.82499991045621,
-50,x,0,0,0,0,43,0,172,0,,,,,636.8293098999998,637.8286205999998,637.8286205999998,637.8286205999998,637.8286205999998,637.8446964,638.8288819000004,638.8288819000004,x,1,0.6182428999995864,None,01,001,2023-10-09_13h15.54.320,motorsequencelearning,2023.1.3,59.82499991045621,
150,v,0,0,0,0,43,1,173,1,,,,,639.4780541000005,640.4775026000002,640.4775026000002,640.4775026000002,640.4775026000002,640.4950955999998,641.4777278000006,641.4777278000006,v,1,0.41926289999946675,None,01,001,2023-10-09_13h15.54.320,motorsequencelearning,2023.1.3,59.82499991045621,
50,c,0,0,0,0,43,2,174,2,,,,,641.9273180000005,642.9263944999998,642.9263944999998,642.9263944999998,642.9263944999998,642.9263944999998,643.9272445000001,643.9272445000001,c,1,0.7807126000002427,None,01,001,2023-10-09_13h15.54.320,motorsequencelearning,2023.1.3,59.82499991045621,
-150,z,0,0,0,0,43,3,175,3,,,,,644.7261278999999,645.7259687000001,645.7259687000001,645.7259687000001,645.7259687000001,645.7259687000001,646.7260197999999,646.7260197999999,z,1,0.5857471000003898,None,01,001,2023-10-09_13h15.54.320,motorsequencelearning,2023.1.3,59.82499991045621,
-50,x,0,0,0,0,44,0,176,0,,,,,647.3424496000002,648.3430377999998,648.3430377999998,648.3430377999998,648.3430377999998,648.3430377999998,649.3422616000003,649.3422616000003,x,1,0.6233308000005309,None,01,001,2023-10-09_13h15.54.320,motorsequencelearning,2023.1.3,59.82499991045621,
150,v,0,0,0,0,44,1,177,1,,,,,649.9920413000004,650.9921884999999,650.9921884999999,650.9921884999999,650.9921884999999,650.9921884999999,651.9917980000005,651.9917980000005,v,1,0.5522395000002689,None,01,001,2023-10-09_13h15.54.320,motorsequencelearning,2023.1.3,59.82499991045621,
50,c,0,0,0,0,44,2,178,2,,,,,652.5740331000002,653.5730047000002,653.5730047000002,653.5730047000002,653.5730047000002,653.5911392000003,654.5735617000005,654.5735617000005,c,1,0.7564151999999922,None,01,001,2023-10-09_13h15.54.320,motorsequencelearning,2023.1.3,59.82499991045621,
-150,z,0,0,0,0,44,3,179,3,,,,,655.3570052999999,656.3569668000005,656.3569668000005,656.3569668000005,656.3569668000005,656.3569668000005,657.3560495000006,657.3560495000006,z,1,0.4288024000002224,None,01,001,2023-10-09_13h15.54.320,motorsequencelearning,2023.1.3,59.82499991045621,
-50,x,0,0,0,0,45,0,180,0,,,,,657.8051135000001,658.7892973000003,658.7892973000003,658.7892973000003,658.7892973000003,658.8061575000006,659.8052758999997,659.8052758999997,x,1,0.5095240000005106,None,01,001,2023-10-09_13h15.54.320,motorsequencelearning,2023.1.3,59.82499991045621,
150,v,0,0,0,0,45,1,181,1,,,,,660.3386783999999,661.3390284000002,661.3390284000002,661.3390284000002,661.3390284000002,661.3390284000002,662.3384212000005,662.3384212000005,v,1,0.48486760000059803,None,01,001,2023-10-09_13h15.54.320,motorsequencelearning,2023.1.3,59.82499991045621,
50,c,0,0,0,0,45,2,182,2,,,,,662.8544253000005,663.8535119000003,663.8535119000003,663.8535119000003,663.8535119000003,663.8708608000002,664.8537544000005,664.8537544000005,c,1,0.9171638000002531,None,01,001,2023-10-09_13h15.54.320,motorsequencelearning,2023.1.3,59.82499991045621,
-150,z,0,0,0,0,45,3,183,3,,,,,665.7871469000006,666.7865695000005,666.7865695000005,666.7865695000005,666.7865695000005,666.7865695000005,667.7859008999999,667.7859008999999,z,1,0.8252606999999443,None,01,001,2023-10-09_13h15.54.320,motorsequencelearning,2023.1.3,59.82499991045621,
-50,x,0,0,0,0,46,0,184,0,,,,,668.6355192000005,669.6349295000005,669.6349295000005,669.6349295000005,669.6349295000005,669.6532923999998,670.6196086000004,670.6196086000004,x,1,0.6957710000001498,None,01,001,2023-10-09_13h15.54.320,motorsequencelearning,2023.1.3,59.82499991045621,
150,v,0,0,0,0,46,1,185,1,,,,,671.3350231999998,672.3351641000004,672.3351641000004,672.3351641000004,672.3351641000004,672.3351641000004,673.3353160000001,673.3353160000001,v,1,0.7302389999999832,None,01,001,2023-10-09_13h15.54.320,motorsequencelearning,2023.1.3,59.82499991045621,
50,c,0,0,0,0,46,2,186,2,,,,,674.0852019999998,675.0847391000002,675.0847391000002,675.0847391000002,675.0847391000002,675.0847391000002,676.0843066000002,676.0843066000002,c,1,0.8247096000000056,None,01,001,2023-10-09_13h15.54.320,motorsequencelearning,2023.1.3,59.82499991045621,
-150,z,0,0,0,0,46,3,187,3,,,,,676.9331440999999,677.9324062000001,677.9324062000001,677.9324062000001,677.9324062000001,677.9324062000001,678.9325672999998,678.9325672999998,z,1,3.7884275000001253,None,01,001,2023-10-09_13h15.54.320,motorsequencelearning,2023.1.3,59.82499991045621,
-50,x,0,0,0,0,47,0,188,0,,,,,682.7484208999999,683.7314025000001,683.7314025000001,683.7314025000001,683.7314025000001,683.7479602999997,684.7476558000003,684.7476558000003,x,1,0.5584383999998863,None,01,001,2023-10-09_13h15.54.320,motorsequencelearning,2023.1.3,59.82499991045621,
150,v,0,0,0,0,47,1,189,1,,,,,685.3318407000002,686.3314489999998,686.3314489999998,686.3314489999998,686.3314489999998,686.3314489999998,687.3301391999998,687.3301391999998,v,1,0.4892992999998569,None,01,001,2023-10-09_13h15.54.320,motorsequencelearning,2023.1.3,59.82499991045621,
50,c,0,0,0,0,47,2,190,2,,,,,687.8463686999999,688.8298368000001,688.8298368000001,688.8298368000001,688.8298368000001,688.8465388,689.8299727999997,689.8299727999997,c,1,0.6286488000000645,None,01,001,2023-10-09_13h15.54.320,motorsequencelearning,2023.1.3,59.82499991045621,
-150,z,0,0,0,0,47,3,191,3,,,,,690.4793113000001,691.4779997999999,691.4779997999999,691.4779997999999,691.4779997999999,691.495754,692.4789323,692.4789323,z,1,0.5007098000000951,None,01,001,2023-10-09_13h15.54.320,motorsequencelearning,2023.1.3,59.82499991045621,
-50,x,0,0,0,0,48,0,192,0,,,,,693.0112260000001,693.9957767999999,693.9957767999999,693.9957767999999,693.9957767999999,694.0115491000001,694.9948694,694.9948694,x,1,1.619164300000648,None,01,001,2023-10-09_13h15.54.320,motorsequencelearning,2023.1.3,59.82499991045621,
150,v,0,0,0,0,48,1,193,1,,,,,696.6437544000005,697.6277689000003,697.6277689000003,697.6277689000003,697.6277689000003,697.6448077,698.6274301999997,698.6274301999997,v,1,0.6684325000001081,None,01,001,2023-10-09_13h15.54.320,motorsequencelearning,2023.1.3,59.82499991045621,
50,c,0,0,0,0,48,2,194,2,,,,,699.3266735000002,700.3425784000005,700.3425784000005,700.3425784000005,700.3425784000005,700.3425784000005,701.3258247999997,701.3258247999997,c,1,1.0981501000001117,None,01,001,2023-10-09_13h15.54.320,motorsequencelearning,2023.1.3,59.82499991045621,
-150,z,0,0,0,0,48,3,195,3,,,,,702.4414940000001,703.4423120000006,703.4423120000006,703.4423120000006,703.4423120000006,703.4423120000006,704.4414563000005,704.4414563000005,z,1,0.4891364000000067,None,01,001,2023-10-09_13h15.54.320,motorsequencelearning,2023.1.3,59.82499991045621,
-50,x,0,0,0,0,49,0,196,0,,,,,704.9583594000001,705.9581700000003,705.9581700000003,705.9581700000003,705.9581700000003,705.9581700000003,706.9576302,706.9576302,x,1,0.6497784999996838,None,01,001,2023-10-09_13h15.54.320,motorsequencelearning,2023.1.3,59.82499991045621,
150,v,0,0,0,0,49,1,197,1,,,,,707.6237654000001,708.6392935999997,708.6392935999997,708.6392935999997,708.6392935999997,708.6392935999997,709.6234547999998,709.6234547999998,v,1,0.4101943000000574,None,01,001,2023-10-09_13h15.54.320,motorsequencelearning,2023.1.3,59.82499991045621,
50,c,0,0,0,0,49,2,198,2,,,,,710.0563459999998,711.0571157999998,711.0571157999998,711.0571157999998,711.0571157999998,711.0571157999998,712.0559241000005,712.0559241000005,c,1,0.3871180999999524,None,01,001,2023-10-09_13h15.54.320,motorsequencelearning,2023.1.3,59.82499991045621,
-150,z,0,0,0,0,49,3,199,3,,,,,712.4724049000001,713.4721973999999,713.4721973999999,713.4721973999999,713.4721973999999,713.4721973999999,714.4724252000001,714.4724252000001,z,1,0.42198810000036246,None,01,001,2023-10-09_13h15.54.320,motorsequencelearning,2023.1.3,59.82499991045621,
-150,z,0,0,0,0,,,,,0,0,0,3,715.0705804000004,715.9213918999999,715.9213918999999,715.9213918999999,715.9213918999999,716.0708326999998,716.9209370000003,716.9209370000003,z,1,0.43097480000005817,None,01,001,2023-10-09_13h15.54.320,motorsequencelearning,2023.1.3,59.82499991045621,
-150,z,0,0,0,0,,,,,0,1,1,3,717.3711288999998,718.3709180999999,718.3709180999999,718.3709180999999,718.3709180999999,718.3709180999999,719.3707504999998,719.3707504999998,z,1,0.32236800000055155,None,01,001,2023-10-09_13h15.54.320,motorsequencelearning,2023.1.3,59.82499991045621,
50,c,0,0,0,0,,,,,0,2,2,2,719.7203745000002,720.7207463999998,720.7207463999998,720.7207463999998,720.7207463999998,720.7207463999998,721.7191993000001,721.7191993000001,c,1,0.5832216000003427,None,01,001,2023-10-09_13h15.54.320,motorsequencelearning,2023.1.3,59.82499991045621,
50,c,0,0,0,0,,,,,0,3,3,2,722.3188150000001,723.3190503999999,723.3190503999999,723.3190503999999,723.3190503999999,723.3190503999999,724.3195425999997,724.3195425999997,c,1,0.3985725999996248,None,01,001,2023-10-09_13h15.54.320,motorsequencelearning,2023.1.3,59.82499991045621,
150,v,0,0,0,0,,,,,1,0,4,1,724.7353377000004,725.7354528000001,725.7354528000001,725.7354528000001,725.7354528000001,725.7354528000001,726.7348785999998,726.7348785999998,v,1,0.3768612999997458,None,01,001,2023-10-09_13h15.54.320,motorsequencelearning,2023.1.3,59.82499991045621,
50,c,0,0,0,0,,,,,1,1,5,2,727.1344977000003,728.1341428000001,728.1341428000001,728.1341428000001,728.1341428000001,728.1341428000001,729.1344044000002,729.1344044000002,c,1,0.4583938999999191,None,01,001,2023-10-09_13h15.54.320,motorsequencelearning,2023.1.3,59.82499991045621,
150,v,0,0,0,0,,,,,1,2,6,1,729.6168858000005,730.6161769000005,730.6161769000005,730.6161769000005,730.6161769000005,730.6161769000005,731.6164810000005,731.6164810000005,v,1,0.4738729000005151,None,01,001,2023-10-09_13h15.54.320,motorsequencelearning,2023.1.3,59.82499991045621,
50,c,0,0,0,0,,,,,1,3,7,2,732.1161851000002,733.1159817000002,733.1159817000002,733.1159817000002,733.1159817000002,733.1159817000002,734.1155764,734.1155764,c,1,0.5386024000003999,None,01,001,2023-10-09_13h15.54.320,motorsequencelearning,2023.1.3,59.82499991045621,
50,c,0,0,0,0,,,,,2,0,8,2,734.6823294999999,735.6829938000005,735.6829938000005,735.6829938000005,735.6829938000005,735.6829938000005,736.6818709000004,736.6818709000004,c,1,0.4457733999993252,None,01,001,2023-10-09_13h15.54.320,motorsequencelearning,2023.1.3,59.82499991045621,
-50,x,0,0,0,0,,,,,2,1,9,0,737.1480342999998,738.1475838000001,738.1475838000001,738.1475838000001,738.1475838000001,738.1475838000001,739.1477996999997,739.1477996999997,x,1,0.9212265999999545,None,01,001,2023-10-09_13h15.54.320,motorsequencelearning,2023.1.3,59.82499991045621,
-50,x,0,0,0,0,,,,,2,2,10,0,740.0971855000003,741.0974624000005,741.0974624000005,741.0974624000005,741.0974624000005,741.0974624000005,742.0965186999997,742.0965186999997,x,1,0.46885729999985415,None,01,001,2023-10-09_13h15.54.320,motorsequencelearning,2023.1.3,59.82499991045621,
50,c,0,0,0,0,,,,,2,3,11,2,742.5996673000004,743.5964141,743.5964141,743.5964141,743.5964141,743.6131689999997,744.5958901999998,744.5958901999998,c,1,1.0939363000002231,None,01,001,2023-10-09_13h15.54.320,motorsequencelearning,2023.1.3,59.82499991045621,
50,c,0,0,0,0,,,,,3,0,12,2,745.7122985000001,746.7127030000006,746.7127030000006,746.7127030000006,746.7127030000006,746.7127030000006,747.7116263000003,747.7116263000003,c,1,0.5756384999999682,None,01,001,2023-10-09_13h15.54.320,motorsequencelearning,2023.1.3,59.82499991045621,
-50,x,0,0,0,0,,,,,3,1,13,0,748.3116457000001,749.3275542000006,749.3275542000006,749.3275542000006,749.3275542000006,749.3275542000006,750.3108157000001,750.3108157000001,x,1,0.5184666999998626,None,01,001,2023-10-09_13h15.54.320,motorsequencelearning,2023.1.3,59.82499991045621,
150,v,0,0,0,0,,,,,3,2,14,1,750.8604614999999,751.8608688999998,751.8608688999998,751.8608688999998,751.8608688999998,751.8608688999998,752.8597816000006,752.8597816000006,v,1,0.4649709000000257,None,01,001,2023-10-09_13h15.54.320,motorsequencelearning,2023.1.3,59.82499991045621,
-50,x,0,0,0,0,,,,,3,3,15,0,753.3430971000003,754.3435575999997,754.3435575999997,754.3435575999997,754.3435575999997,754.3435575999997,755.3427812000004,755.3427812000004,x,1,0.523407799999859,None,01,001,2023-10-09_13h15.54.320,motorsequencelearning,2023.1.3,59.82499991045621,
50,c,0,0,0,0,,,,,4,0,16,2,755.8925408999999,756.9079845000001,756.9079845000001,756.9079845000001,756.9079845000001,756.9079845000001,757.8914411999999,757.8914411999999,c,1,0.6047586999998202,None,01,001,2023-10-09_13h15.54.320,motorsequencelearning,2023.1.3,59.82499991045621,
-150,z,0,0,0,0,,,,,4,1,17,3,758.5249128999999,759.5245460000001,759.5245460000001,759.5245460000001,759.5245460000001,759.5245460000001,760.5245903,760.5245903,z,1,0.6426387999995313,None,01,001,2023-10-09_13h15.54.320,motorsequencelearning,2023.1.3,59.82499991045621,
-150,z,0,0,0,0,,,,,4,2,18,3,761.1907662999997,762.1911787000004,762.1911787000004,762.1911787000004,762.1911787000004,762.1911787000004,763.1898408000002,763.1898408000002,z,1,0.6856559000002562,None,01,001,2023-10-09_13h15.54.320,motorsequencelearning,2023.1.3,59.82499991045621,
150,v,0,0,0,0,,,,,4,3,19,1,763.9067882000004,764.9074461000005,764.9074461000005,764.9074461000005,764.9074461000005,764.9074461000005,765.9059597999999,765.9059597999999,v,1,0.3761635000005299,None,01,001,2023-10-09_13h15.54.320,motorsequencelearning,2023.1.3,59.82499991045621,
150,v,0,0,0,0,,,,,5,0,20,1,766.3056566,767.3057056000002,767.3057056000002,767.3057056000002,767.3057056000002,767.3057056000002,768.3051649000004,768.3051649000004,v,1,0.41020520000029137,None,01,001,2023-10-09_13h15.54.320,motorsequencelearning,2023.1.3,59.82499991045621,
-50,x,0,0,0,0,,,,,5,1,21,0,768.7383912999999,769.7381099999998,769.7381099999998,769.7381099999998,769.7381099999998,769.7381099999998,770.7378663000004,770.7378663000004,x,1,0.6647111999996014,None,01,001,2023-10-09_13h15.54.320,motorsequencelearning,2023.1.3,59.82499991045621,
-150,z,0,0,0,0,,,,,5,2,22,3,771.4206680000002,772.4204678000001,772.4204678000001,772.4204678000001,772.4204678000001,772.4204678000001,773.4207545000004,773.4207545000004,z,1,0.4139120000004368,None,01,001,2023-10-09_13h15.54.320,motorsequencelearning,2023.1.3,59.82499991045621,
-150,z,0,0,0,0,,,,,5,3,23,3,773.8534500000001,774.8536819000005,774.8536819000005,774.8536819000005,774.8536819000005,774.8536819000005,775.8527304000004,775.8527304000004,z,1,0.38580550000051517,None,01,001,2023-10-09_13h15.54.320,motorsequencelearning,2023.1.3,59.82499991045621,
-50,x,0,0,0,0,,,,,6,0,24,0,776.2693824000003,777.2694972000004,777.2694972000004,777.2694972000004,777.2694972000004,777.2694972000004,778.2684517000002,778.2684517000002,x,1,0.6838315999998485,None,01,001,2023-10-09_13h15.54.320,motorsequencelearning,2023.1.3,59.82499991045621,
50,c,0,0,0,0,,,,,6,1,25,2,778.9684563000005,779.9685476999998,779.9685476999998,779.9685476999998,779.9685476999998,779.9685476999998,780.9682409000002,780.9682409000002,c,1,0.5784926000001178,None,01,001,2023-10-09_13h15.54.320,motorsequencelearning,2023.1.3,59.82499991045621,
-50,x,0,0,0,0,,,,,6,2,26,0,781.5677111999998,782.5673308999999,782.5673308999999,782.5673308999999,782.5673308999999,782.5673308999999,783.5670475000002,783.5670475000002,x,1,0.6759346000003461,None,01,001,2023-10-09_13h15.54.320,motorsequencelearning,2023.1.3,59.82499991045621,
-150,z,0,0,0,0,,,,,6,3,27,3,784.2673226000002,785.2671000000005,785.2671000000005,785.2671000000005,785.2671000000005,785.2671000000005,786.2668409000003,786.2668409000003,z,1,0.5293406999994659,None,01,001,2023-10-09_13h15.54.320,motorsequencelearning,2023.1.3,59.82499991045621,
-150,z,0,0,0,0,,,,,7,0,28,3,786.8165921000004,787.8151155,787.8151155,787.8151155,787.8151155,787.8322357000002,788.8161286,788.8161286,z,1,0.4687934000007772,None,01,001,2023-10-09_13h15.54.320,motorsequencelearning,2023.1.3,59.82499991045621,
-150,z,0,0,0,0,,,,,7,1,29,3,789.3152727000002,790.3157314000005,790.3157314000005,790.3157314000005,790.3157314000005,790.3157314000005,791.3146244000004,791.3146244000004,z,1,0.4271276999993461,None,01,001,2023-10-09_13h15.54.320,motorsequencelearning,2023.1.3,59.82499991045621,
50,c,0,0,0,0,,,,,7,2,30,2,791.7654157000002,792.7639683000002,792.7639683000002,792.7639683000002,792.7639683000002,792.7805650000005,793.7640634000004,793.7640634000004,c,1,0.535475399999541,None,01,001,2023-10-09_13h15.54.320,motorsequencelearning,2023.1.3,59.82499991045621,
50,c,0,0,0,0,,,,,7,3,31,2,794.3301040000001,795.3148673000001,795.3148673000001,795.3148673000001,795.3148673000001,795.3300433999998,796.3302776000005,796.3302776000005,c,1,0.447859100000187,None,01,001,2023-10-09_13h15.54.320,motorsequencelearning,2023.1.3,59.82499991045621,
150,v,0,0,0,0,,,,,8,0,32,1,796.7963947000003,797.7957091000003,797.7957091000003,797.7957091000003,797.7957091000003,797.7957091000003,798.7955880000004,798.7955880000004,v,1,0.5178096000004189,None,01,001,2023-10-09_13h15.54.320,motorsequencelearning,2023.1.3,59.82499991045621,
150,v,0,0,0,0,,,,,8,1,33,1,799.3456277,800.3454489999999,800.3454489999999,800.3454489999999,800.3454489999999,800.3454489999999,801.3449289000005,801.3449289000005,v,1,0.4497261999999864,None,01,001,2023-10-09_13h15.54.320,motorsequencelearning,2023.1.3,59.82499991045621,
-50,x,0,0,0,0,,,,,8,2,34,0,801.8117361999998,802.8109005000001,802.8109005000001,802.8109005000001,802.8109005000001,802.8271501000004,803.8116082000001,803.8116082000001,x,1,0.5260362000003624,None,01,001,2023-10-09_13h15.54.320,motorsequencelearning,2023.1.3,59.82499991045621,
-150,z,0,0,0,0,,,,,8,3,35,3,804.3612624000002,805.3617354000003,805.3617354000003,805.3617354000003,805.3617354000003,805.3617354000003,806.3601222000002,806.3601222000002,z,1,0.47188260000029913,None,01,001,2023-10-09_13h15.54.320,motorsequencelearning,2023.1.3,59.82499991045621,
50,c,0,0,0,0,,,,,9,0,36,2,806.8599381999998,807.8591423000003,807.8591423000003,807.8591423000003,807.8591423000003,807.8591423000003,808.8599399,808.8599399,c,1,0.4474738999992951,None,01,001,2023-10-09_13h15.54.320,motorsequencelearning,2023.1.3,59.82499991045621,
-50,x,0,0,0,0,,,,,9,1,37,0,809.3261164999999,810.3410088000005,810.3410088000005,810.3410088000005,810.3410088000005,810.3410088000005,811.3248872999998,811.3248872999998,x,1,0.43729750000011336,None,01,001,2023-10-09_13h15.54.320,motorsequencelearning,2023.1.3,59.82499991045621,
-150,z,0,0,0,0,,,,,9,2,38,3,811.7916261000005,812.7911361000001,812.7911361000001,812.7911361000001,812.7911361000001,812.7911361000001,813.7910441999998,813.7910441999998,z,1,0.4467147999998815,None,01,001,2023-10-09_13h15.54.320,motorsequencelearning,2023.1.3,59.82499991045621,
-50,x,0,0,0,0,,,,,9,3,39,0,814.2577044000004,815.2580262000006,815.2580262000006,815.2580262000006,815.2580262000006,815.2580262000006,816.2571869999997,816.2571869999997,x,1,0.5417933000003359,None,01,001,2023-10-09_13h15.54.320,motorsequencelearning,2023.1.3,59.82499991045621,
50,c,0,0,0,0,,,,,10,0,40,2,816.8232862,817.8228867000003,817.8228867000003,817.8228867000003,817.8228867000003,817.8228867000003,818.8232161000001,818.8232161000001,c,1,0.7473433000000114,None,01,001,2023-10-09_13h15.54.320,motorsequencelearning,2023.1.3,59.82499991045621,
-150,z,0,0,0,0,,,,,10,1,41,3,819.5894820999997,820.5896429,820.5896429,820.5896429,820.5896429,820.5896429,821.5892650000001,821.5892650000001,z,1,0.45282820000056745,None,01,001,2023-10-09_13h15.54.320,motorsequencelearning,2023.1.3,59.82499991045621,
-150,z,0,0,0,0,,,,,10,2,42,3,822.0723788,823.0710484000006,823.0710484000006,823.0710484000006,823.0710484000006,823.0880818999999,824.0710401000001,824.0710401000001,z,1,0.4103020999996261,None,01,001,2023-10-09_13h15.54.320,motorsequencelearning,2023.1.3,59.82499991045621,
-150,z,0,0,0,0,,,,,10,3,43,3,824.5052323000004,825.504117,825.504117,825.504117,825.504117,825.5207331000006,826.5044886000001,826.5044886000001,z,1,0.4824991999998929,None,01,001,2023-10-09_13h15.54.320,motorsequencelearning,2023.1.3,59.82499991045621,
150,v,0,0,0,0,,,,,11,0,44,1,827.0036646000003,828.0030474999999,828.0030474999999,828.0030474999999,828.0030474999999,828.0030474999999,829.0026483000006,829.0026483000006,v,1,0.7450481999999283,None,01,001,2023-10-09_13h15.54.320,motorsequencelearning,2023.1.3,59.82499991045621,
150,v,0,0,0,0,,,,,11,1,45,1,829.7691331000001,830.7688830000002,830.7688830000002,830.7688830000002,830.7688830000002,830.7688830000002,831.7683436000002,831.7683436000002,v,1,0.3635957999999846,None,01,001,2023-10-09_13h15.54.320,motorsequencelearning,2023.1.3,59.82499991045621,
150,v,0,0,0,0,,,,,11,2,46,1,832.1516201,833.15119,833.15119,833.15119,833.15119,833.15119,834.1509467000001,834.1509467000001,v,1,0.39930970000068555,None,01,001,2023-10-09_13h15.54.320,motorsequencelearning,2023.1.3,59.82499991045621,
150,v,0,0,0,0,,,,,11,3,47,1,834.5673845000006,835.5511239000002,835.5511239000002,835.5511239000002,835.5511239000002,835.5679364000002,836.5673878000002,836.5673878000002,v,1,0.5351115999997091,None,01,001,2023-10-09_13h15.54.320,motorsequencelearning,2023.1.3,59.82499991045621,
50,c,0,0,0,0,,,,,12,0,48,2,837.1340543000001,838.1332010000001,838.1332010000001,838.1332010000001,838.1332010000001,838.1332010000001,839.1330862999998,839.1330862999998,c,1,0.6870534999993652,None,01,001,2023-10-09_13h15.54.320,motorsequencelearning,2023.1.3,59.82499991045621,
150,v,0,0,0,0,,,,,12,1,49,1,839.8498592999999,840.8490328000003,840.8490328000003,840.8490328000003,840.8490328000003,840.8665651000006,841.8496459000003,841.8496459000003,v,1,0.4342086999999992,None,01,001,2023-10-09_13h15.54.320,motorsequencelearning,2023.1.3,59.82499991045621,
150,v,0,0,0,0,,,,,12,2,50,1,842.3155968000005,843.3156320000003,843.3156320000003,843.3156320000003,843.3156320000003,843.3156320000003,844.3152259000003,844.3152259000003,v,1,0.5089787000001706,None,01,001,2023-10-09_13h15.54.320,motorsequencelearning,2023.1.3,59.82499991045621,
-150,z,0,0,0,0,,,,,12,3,51,3,844.8483123000001,845.8486545999999,845.8486545999999,845.8486545999999,845.8486545999999,845.8486545999999,846.8478522,846.8478522,z,1,0.486082300000362,None,01,001,2023-10-09_13h15.54.320,motorsequencelearning,2023.1.3,59.82499991045621,
-150,z,0,0,0,0,,,,,13,0,52,3,847.3645951000003,848.3641985999998,848.3641985999998,848.3641985999998,848.3641985999998,848.3641985999998,849.3636940000001,849.3636940000001,z,1,0.36112159999947835,None,01,001,2023-10-09_13h15.54.320,motorsequencelearning,2023.1.3,59.82499991045621,
150,v,0,0,0,0,,,,,13,1,53,1,849.7466788000006,850.7474965000006,850.7474965000006,850.7474965000006,850.7474965000006,850.7474965000006,851.7467154999999,851.7467154999999,v,1,0.5216543000001366,None,01,001,2023-10-09_13h15.54.320,motorsequencelearning,2023.1.3,59.82499991045621,
150,v,0,0,0,0,,,,,13,2,54,1,852.3131668999999,853.3125345000003,853.3125345000003,853.3125345000003,853.3125345000003,853.3125345000003,854.3120734999998,854.3120734999998,v,1,0.5373414999999113,None,01,001,2023-10-09_13h15.54.320,motorsequencelearning,2023.1.3,59.82499991045621,
50,c,0,0,0,0,,,,,13,3,55,2,854.8782852999998,855.8783595,855.8783595,855.8783595,855.8783595,855.8783595,856.8781239000004,856.8781239000004,c,1,0.6694555999997647,None,01,001,2023-10-09_13h15.54.320,motorsequencelearning,2023.1.3,59.82499991045621,
50,c,0,0,0,0,,,,,14,0,56,2,857.5775985000005,858.5607832999999,858.5607832999999,858.5607832999999,858.5607832999999,858.5773719000003,859.5767031,859.5767031,c,1,0.37714009999990594,None,01,001,2023-10-09_13h15.54.320,motorsequencelearning,2023.1.3,59.82499991045621,
-150,z,0,0,0,0,,,,,14,1,57,3,859.9768702000006,860.9770994000005,860.9770994000005,860.9770994000005,860.9770994000005,860.9770994000005,861.9764943000005,861.9764943000005,z,1,0.4890233999999509,None,01,001,2023-10-09_13h15.54.320,motorsequencelearning,2023.1.3,59.82499991045621,
-50,x,0,0,0,0,,,,,14,2,58,0,862.4927821000006,863.4934009000003,863.4934009000003,863.4934009000003,863.4934009000003,863.4934009000003,864.4923825000001,864.4923825000001,x,1,0.5485772000006364,None,01,001,2023-10-09_13h15.54.320,motorsequencelearning,2023.1.3,59.82499991045621,
50,c,0,0,0,0,,,,,14,3,59,2,865.0587436000001,866.0585562000001,866.0585562000001,866.0585562000001,866.0585562000001,866.0585562000001,867.0588042000004,867.0588042000004,c,1,0.6748592999997527,None,01,001,2023-10-09_13h15.54.320,motorsequencelearning,2023.1.3,59.82499991045621,
-150,z,0,0,0,0,,,,,15,0,60,3,867.7570639,868.7574691000004,868.7574691000004,868.7574691000004,868.7574691000004,868.7574691000004,869.7404989000001,869.7404989000001,z,1,0.44890580000037517,None,01,001,2023-10-09_13h15.54.320,motorsequencelearning,2023.1.3,59.82499991045621,
-150,z,0,0,0,0,,,,,15,1,61,3,870.2077147000005,871.2084067000001,871.2084067000001,871.2084067000001,871.2084067000001,871.2084067000001,872.2064912000001,872.2064912000001,z,1,0.46264190000010785,None,01,001,2023-10-09_13h15.54.320,motorsequencelearning,2023.1.3,59.82499991045621,
-50,x,0,0,0,0,,,,,15,2,62,0,872.6890881000004,873.6894541000006,873.6894541000006,873.6894541000006,873.6894541000006,873.6894541000006,874.6898087000004,874.6898087000004,x,1,0.7169758999993974,None,01,001,2023-10-09_13h15.54.320,motorsequencelearning,2023.1.3,59.82499991045621,
50,c,0,0,0,0,,,,,15,3,63,2,875.4382952000001,876.4377840000002,876.4377840000002,876.4377840000002,876.4377840000002,876.4554886999999,877.4383213000006,877.4383213000006,c,1,0.4154273999997713,None,01,001,2023-10-09_13h15.54.320,motorsequencelearning,2023.1.3,59.82499991045621,
150,v,0,0,0,0,,,,,16,0,64,1,877.8711063000005,878.8867137000002,878.8867137000002,878.8867137000002,878.8867137000002,878.8867137000002,879.8706496999998,879.8706496999998,v,1,0.49553900000000795,None,01,001,2023-10-09_13h15.54.320,motorsequencelearning,2023.1.3,59.82499991045621,
150,v,0,0,0,0,,,,,16,1,65,1,880.3871847000005,881.3871242999999,881.3871242999999,881.3871242999999,881.3871242999999,881.3871242999999,882.3864944000002,882.3864944000002,v,1,0.40093969999952606,None,01,001,2023-10-09_13h15.54.320,motorsequencelearning,2023.1.3,59.82499991045621,
50,c,0,0,0,0,,,,,16,2,66,2,882.8195319000001,883.803273,883.803273,883.803273,883.803273,883.8196591999999,884.8187838999997,884.8187838999997,c,1,0.43052059999945413,None,01,001,2023-10-09_13h15.54.320,motorsequencelearning,2023.1.3,59.82499991045621,
-150,z,0,0,0,0,,,,,16,3,67,3,885.2687773000002,886.2529288999999,886.2529288999999,886.2529288999999,886.2529288999999,886.2694865999997,887.2684832,887.2684832,z,1,0.46362249999992855,None,01,001,2023-10-09_13h15.54.320,motorsequencelearning,2023.1.3,59.82499991045621,
-150,z,0,0,0,0,,,,,17,0,68,3,887.7508345000001,888.7515957999999,888.7515957999999,888.7515957999999,888.7515957999999,888.7515957999999,889.7515837000005,889.7515837000005,z,1,0.34575880000056713,None,01,001,2023-10-09_13h15.54.320,motorsequencelearning,2023.1.3,59.82499991045621,
50,c,0,0,0,0,,,,,17,1,69,2,890.1173700000004,891.1178315000002,891.1178315000002,891.1178315000002,891.1178315000002,891.1178315000002,892.1174778999998,892.1174778999998,c,1,0.5338163000001259,None,01,001,2023-10-09_13h15.54.320,motorsequencelearning,2023.1.3,59.82499991045621,
50,c,0,0,0,0,,,,,17,2,70,2,892.6828706000001,893.6838991999998,893.6838991999998,893.6838991999998,893.6838991999998,893.6838991999998,894.6831594,894.6831594,c,1,0.4586709999998675,None,01,001,2023-10-09_13h15.54.320,motorsequencelearning,2023.1.3,59.82499991045621,
150,v,0,0,0,0,,,,,17,3,71,1,895.1659402,896.1666578999998,896.1666578999998,896.1666578999998,896.1666578999998,896.1666578999998,897.1658621000001,897.1658621000001,v,1,0.5269315000000461,None,01,001,2023-10-09_13h15.54.320,motorsequencelearning,2023.1.3,59.82499991045621,
-150,z,0,0,0,0,,,,,18,0,72,3,897.7144862999999,898.7144529000002,898.7144529000002,898.7144529000002,898.7144529000002,898.7326850000004,899.7144500999998,899.7144500999998,z,1,0.3960442000002331,None,01,001,2023-10-09_13h15.54.320,motorsequencelearning,2023.1.3,59.82499991045621,
50,c,0,0,0,0,,,,,18,1,73,2,900.1314834999998,901.1316054000004,901.1316054000004,901.1316054000004,901.1316054000004,901.1316054000004,902.1308008999999,902.1308008999999,c,1,0.6526231000002554,None,01,001,2023-10-09_13h15.54.320,motorsequencelearning,2023.1.3,59.82499991045621,
50,c,0,0,0,0,,,,,18,2,74,2,902.8128972999998,903.797078,903.797078,903.797078,903.797078,903.8136580000005,904.7967383999999,904.7967383999999,c,1,0.5132353000003604,None,01,001,2023-10-09_13h15.54.320,motorsequencelearning,2023.1.3,59.82499991045621,
150,v,0,0,0,0,,,,,18,3,75,1,905.3294785000003,906.3293570000001,906.3293570000001,906.3293570000001,906.3293570000001,906.3293570000001,907.3293391000002,907.3293391000002,v,1,0.5132106999994903,None,01,001,2023-10-09_13h15.54.320,motorsequencelearning,2023.1.3,59.82499991045621,
-50,x,0,0,0,0,,,,,19,0,76,0,907.8617469000005,908.8457946000003,908.8457946000003,908.8457946000003,908.8457946000003,908.8624663000005,909.8615663000005,909.8615663000005,x,1,0.7134686000003967,None,01,001,2023-10-09_13h15.54.320,motorsequencelearning,2023.1.3,59.82499991045621,
50,c,0,0,0,0,,,,,19,1,77,2,910.5947865000003,911.5952300000004,911.5952300000004,911.5952300000004,911.5952300000004,911.5952300000004,912.5940459999997,912.5940459999997,c,1,0.5477768000005199,None,01,001,2023-10-09_13h15.54.320,motorsequencelearning,2023.1.3,59.82499991045621,
50,c,0,0,0,0,,,,,19,2,78,2,913.1601553000005,914.1609142000002,914.1609142000002,914.1609142000002,914.1609142000002,914.1609142000002,915.1596449000003,915.1596449000003,c,1,0.3772906999997758,None,01,001,2023-10-09_13h15.54.320,motorsequencelearning,2023.1.3,59.82499991045621,
-50,x,0,0,0,0,,,,,19,3,79,0,915.5594745000003,916.5437934000006,916.5437934000006,916.5437934000006,916.5437934000006,916.5597626000003,917.5593377999999,917.5593377999999,x,1,0.7196693999999297,None,01,001,2023-10-09_13h15.54.320,motorsequencelearning,2023.1.3,59.82499991045621,
150,v,0,0,0,0,,,,,20,0,80,1,918.308931,919.2926584000002,919.2926584000002,919.2926584000002,919.2926584000002,919.3090469000003,920.3079837,920.3079837,v,1,0.6495018999999047,None,01,001,2023-10-09_13h15.54.320,motorsequencelearning,2023.1.3,59.82499991045621,
150,v,0,0,0,0,,,,,20,1,81,1,920.9745300999998,921.9908218000005,921.9908218000005,921.9908218000005,921.9908218000005,921.9908218000005,922.9738492000001,922.9738492000001,v,1,0.6962991999994301,None,01,001,2023-10-09_13h15.54.320,motorsequencelearning,2023.1.3,59.82499991045621,
-150,z,0,0,0,0,,,,,20,2,82,3,923.6906042000005,924.6895134000001,924.6895134000001,924.6895134000001,924.6895134000001,924.7067448000003,925.6904311000003,925.6904311000003,z,1,0.8451801999995041,None,01,001,2023-10-09_13h15.54.320,motorsequencelearning,2023.1.3,59.82499991045621,
-50,x,0,0,0,0,,,,,20,3,83,0,926.5565787,927.5558449000005,927.5558449000005,927.5558449000005,927.5558449000005,927.5558449000005,928.5556937000006,928.5556937000006,x,1,0.7829604999992625,None,01,001,2023-10-09_13h15.54.320,motorsequencelearning,2023.1.3,59.82499991045621,
-50,x,0,0,0,0,,,,,21,0,84,0,929.3554264999998,930.3551898999999,930.3551898999999,930.3551898999999,930.3551898999999,930.3551898999999,931.3556997999999,931.3556997999999,x,1,0.4940190000002076,None,01,001,2023-10-09_13h15.54.320,motorsequencelearning,2023.1.3,59.82499991045621,
-150,z,0,0,0,0,,,,,21,1,85,3,931.8715575000001,932.8710919,932.8710919,932.8710919,932.8710919,932.8710919,933.8710074000005,933.8710074000005,z,1,0.42222240000000966,None,01,001,2023-10-09_13h15.54.320,motorsequencelearning,2023.1.3,59.82499991045621,
150,v,0,0,0,0,,,,,21,2,86,1,934.3203032000006,935.3040162000002,935.3040162000002,935.3040162000002,935.3040162000002,935.3203511000006,936.3195828000003,936.3195828000003,v,1,0.5314551999995274,None,01,001,2023-10-09_13h15.54.320,motorsequencelearning,2023.1.3,59.82499991045621,
150,v,0,0,0,0,,,,,21,3,87,1,936.8697672000003,937.8692851999999,937.8692851999999,937.8692851999999,937.8692851999999,937.8692851999999,938.8698817999998,938.8698817999998,v,1,0.46709359999977096,None,01,001,2023-10-09_13h15.54.320,motorsequencelearning,2023.1.3,59.82499991045621,
-50,x,0,0,0,0,,,,,22,0,88,0,939.3695136000001,940.3692286999999,940.3692286999999,940.3692286999999,940.3692286999999,940.3692286999999,941.3684434000002,941.3684434000002,x,1,0.7882598999999573,None,01,001,2023-10-09_13h15.54.320,motorsequencelearning,2023.1.3,59.82499991045621,
50,c,0,0,0,0,,,,,22,1,89,2,942.1854435999999,943.1842744,943.1842744,943.1842744,943.1842744,943.2012174000006,944.1846166,944.1846166,c,1,0.597753499999726,None,01,001,2023-10-09_13h15.54.320,motorsequencelearning,2023.1.3,59.82499991045621,
-50,x,0,0,0,0,,,,,22,2,90,0,944.8004537000002,945.7998494999997,945.7998494999997,945.7998494999997,945.7998494999997,945.7998494999997,946.8004276000006,946.8004276000006,x,1,0.5565125999996781,None,01,001,2023-10-09_13h15.54.320,motorsequencelearning,2023.1.3,59.82499991045621,
150,v,0,0,0,0,,,,,22,3,91,1,947.3830598,948.3829073000002,948.3829073000002,948.3829073000002,948.3829073000002,948.3829073000002,949.3825533000004,949.3825533000004,v,1,0.5556394999998702,None,01,001,2023-10-09_13h15.54.320,motorsequencelearning,2023.1.3,59.82499991045621,
150,v,0,0,0,0,,,,,23,0,92,1,949.9666669000003,950.9660862000005,950.9660862000005,950.9660862000005,950.9660862000005,950.9660862000005,951.9654586000001,951.9654586000001,v,1,0.5195267999993121,None,01,001,2023-10-09_13h15.54.320,motorsequencelearning,2023.1.3,59.82499991045621,
-150,z,0,0,0,0,,,,,23,1,93,3,952.5156890000003,953.5149051000003,953.5149051000003,953.5149051000003,953.5149051000003,953.5149051000003,954.5144876999998,954.5144876999998,z,1,0.7369101999997838,None,01,001,2023-10-09_13h15.54.320,motorsequencelearning,2023.1.3,59.82499991045621,
50,c,0,0,0,0,,,,,23,2,94,2,955.2805561,956.2807717000001,956.2807717000001,956.2807717000001,956.2807717000001,956.2807717000001,957.2800119999997,957.2800119999997,c,1,0.4345742999998947,None,01,001,2023-10-09_13h15.54.320,motorsequencelearning,2023.1.3,59.82499991045621,
50,c,0,0,0,0,,,,,23,3,95,2,957.7461620999998,958.7300280000004,958.7300280000004,958.7300280000004,958.7300280000004,958.7460740000001,959.7458614000002,959.7458614000002,c,1,0.37857260000009774,None,01,001,2023-10-09_13h15.54.320,motorsequencelearning,2023.1.3,59.82499991045621,
-150,z,0,0,0,0,,,,,24,0,96,3,960.1465504000003,961.1467435999998,961.1467435999998,961.1467435999998,961.1467435999998,961.1467435999998,962.1453179000005,962.1453179000005,z,1,0.47213959999999133,None,01,001,2023-10-09_13h15.54.320,motorsequencelearning,2023.1.3,59.82499991045621,
-50,x,0,0,0,0,,,,,24,1,97,0,962.6458723999999,963.6448824000004,963.6448824000004,963.6448824000004,963.6448824000004,963.6448824000004,964.6448562999999,964.6448562999999,x,1,0.530372200000329,None,01,001,2023-10-09_13h15.54.320,motorsequencelearning,2023.1.3,59.82499991045621,
50,c,0,0,0,0,,,,,24,2,98,2,965.1946837999999,966.1951277000003,966.1951277000003,966.1951277000003,966.1951277000003,966.1951277000003,967.1939598000004,967.1939598000004,c,1,1.0644873000005646,None,01,001,2023-10-09_13h15.54.320,motorsequencelearning,2023.1.3,59.82499991045621,
-50,x,0,0,0,0,,,,,24,3,99,0,968.2765708000002,969.2754835999999,969.2754835999999,969.2754835999999,969.2754835999999,969.2933865,970.2761427,970.2761427,x,1,0.4709611999992376,None,01,001,2023-10-09_13h15.54.320,motorsequencelearning,2023.1.3,59.82499991045621,
-50,x,0,0,0,0,,,,,25,0,100,0,970.7752450000003,971.7751140000005,971.7751140000005,971.7751140000005,971.7751140000005,971.7929906000004,972.7749590999997,972.7749590999997,x,1,0.4786890999998832,None,01,001,2023-10-09_13h15.54.320,motorsequencelearning,2023.1.3,59.82499991045621,
150,v,0,0,0,0,,,,,25,1,101,1,973.2753158,974.2908490000004,974.2908490000004,974.2908490000004,974.2908490000004,974.2908490000004,975.2745306000002,975.2745306000002,v,1,0.5504243000000315,None,01,001,2023-10-09_13h15.54.320,motorsequencelearning,2023.1.3,59.82499991045621,
-50,x,0,0,0,0,,,,,25,2,102,0,975.8410819000005,976.8416415000006,976.8416415000006,976.8416415000006,976.8416415000006,976.8416415000006,977.8399433,977.8399433,x,1,0.5681079000000864,None,01,001,2023-10-09_13h15.54.320,motorsequencelearning,2023.1.3,59.82499991045621,
-150,z,0,0,0,0,,,,,25,3,103,3,978.4398771000001,979.4407394000004,979.4407394000004,979.4407394000004,979.4407394000004,979.4407394000004,980.4400360000004,980.4400360000004,z,1,0.4312892000002648,None,01,001,2023-10-09_13h15.54.320,motorsequencelearning,2023.1.3,59.82499991045621,
150,v,0,0,0,0,,,,,26,0,104,1,980.8895182000001,981.8882446000002,981.8882446000002,981.8882446000002,981.8882446000002,981.9055702999999,982.8890428,982.8890428,v,1,0.524960899999769,None,01,001,2023-10-09_13h15.54.320,motorsequencelearning,2023.1.3,59.82499991045621,
150,v,0,0,0,0,,,,,26,1,105,1,983.4385857000002,984.4224123999998,984.4224123999998,984.4224123999998,984.4224123999998,984.4390647000005,985.4378572,985.4378572,v,1,0.5583572999998978,None,01,001,2023-10-09_13h15.54.320,motorsequencelearning,2023.1.3,59.82499991045621,
50,c,0,0,0,0,,,,,26,2,106,2,986.0213617000004,987.0216328000001,987.0216328000001,987.0216328000001,987.0216328000001,987.0216328000001,988.0221154000005,988.0221154000005,c,1,0.5590132000002086,None,01,001,2023-10-09_13h15.54.320,motorsequencelearning,2023.1.3,59.82499991045621,
150,v,0,0,0,0,,,,,26,3,107,1,988.6038604999999,989.6042984000001,989.6042984000001,989.6042984000001,989.6042984000001,989.6042984000001,990.6034208000005,990.6034208000005,v,1,0.5783507999999529,None,01,001,2023-10-09_13h15.54.320,motorsequencelearning,2023.1.3,59.82499991045621,
50,c,0,0,0,0,,,,,27,0,108,2,991.2036549999998,992.2029077000002,992.2029077000002,992.2029077000002,992.2029077000002,992.2029077000002,993.2019709000001,993.2019709000001,c,1,0.46810580000010305,None,01,001,2023-10-09_13h15.54.320,motorsequencelearning,2023.1.3,59.82499991045621,
150,v,0,0,0,0,,,,,27,1,109,1,993.7021288000001,994.7020287999999,994.7020287999999,994.7020287999999,994.7020287999999,994.7020287999999,995.7014255999998,995.7014255999998,v,1,0.6399328000002242,None,01,001,2023-10-09_13h15.54.320,motorsequencelearning,2023.1.3,59.82499991045621,
50,c,0,0,0,0,,,,,27,2,110,2,996.3678302000003,997.3681226000003,997.3681226000003,997.3681226000003,997.3681226000003,997.3681226000003,998.3678500000001,998.3678500000001,c,1,0.5243641000001844,None,01,001,2023-10-09_13h15.54.320,motorsequencelearning,2023.1.3,59.82499991045621,
-50,x,0,0,0,0,,,,,27,3,111,0,998.9174624000002,999.9179759000003,999.9179759000003,999.9179759000003,999.9179759000003,999.9179759000003,1000.9174053000002,1000.9174053000002,x,1,0.9005162999997083,None,01,001,2023-10-09_13h15.54.320,motorsequencelearning,2023.1.3,59.82499991045621,
150,v,0,0,0,0,,,,,28,0,112,1,1001.8497256000005,1002.8489967999999,1002.8489967999999,1002.8489967999999,1002.8489967999999,1002.8489967999999,1003.8492593000005,1003.8492593000005,v,1,0.4852751999992506,None,01,001,2023-10-09_13h15.54.320,motorsequencelearning,2023.1.3,59.82499991045621,
-50,x,0,0,0,0,,,,,28,1,113,0,1004.3655868000001,1005.3643595999997,1005.3643595999997,1005.3643595999997,1005.3643595999997,1005.3818161000004,1006.3654871000003,1006.3654871000003,x,1,0.7761230999999498,None,01,001,2023-10-09_13h15.54.320,motorsequencelearning,2023.1.3,59.82499991045621,
50,c,0,0,0,0,,,,,28,2,114,2,1007.1652630000003,1008.1639363999998,1008.1639363999998,1008.1639363999998,1008.1639363999998,1008.1805362,1009.1644411000002,1009.1644411000002,c,1,0.6994976000000861,None,01,001,2023-10-09_13h15.54.320,motorsequencelearning,2023.1.3,59.82499991045621,
150,v,0,0,0,0,,,,,28,3,115,1,1009.8802661000004,1010.8807712000003,1010.8807712000003,1010.8807712000003,1010.8807712000003,1010.8807712000003,1011.8799449000003,1011.8799449000003,v,1,0.616496800000732,None,01,001,2023-10-09_13h15.54.320,motorsequencelearning,2023.1.3,59.82499991045621,
150,v,0,0,0,0,,,,,29,0,116,1,1012.5134766000006,1013.5142118999997,1013.5142118999997,1013.5142118999997,1013.5142118999997,1013.5142118999997,1014.5128625000002,1014.5128625000002,v,1,0.5295258000001013,None,01,001,2023-10-09_13h15.54.320,motorsequencelearning,2023.1.3,59.82499991045621,
-150,z,0,0,0,0,,,,,29,1,117,3,1015.0623102000004,1016.0618540999999,1016.0618540999999,1016.0618540999999,1016.0618540999999,1016.0618540999999,1017.0619278999998,1017.0619278999998,z,1,0.7059672000000319,None,01,001,2023-10-09_13h15.54.320,motorsequencelearning,2023.1.3,59.82499991045621,
-150,z,0,0,0,0,,,,,29,2,118,3,1017.7941968,1018.7948504999999,1018.7948504999999,1018.7948504999999,1018.7948504999999,1018.7948504999999,1019.7947766000002,1019.7947766000002,z,1,0.3699983000001339,None,01,001,2023-10-09_13h15.54.320,motorsequencelearning,2023.1.3,59.82499991045621,
150,v,0,0,0,0,,,,,29,3,119,1,1020.1940352000006,1021.1945159000002,1021.1945159000002,1021.1945159000002,1021.1945159000002,1021.1945159000002,1022.1936055000001,1022.1936055000001,v,1,0.6808719999994537,None,01,001,2023-10-09_13h15.54.320,motorsequencelearning,2023.1.3,59.82499991045621,
150,v,0,0,0,0,,,,,30,0,120,1,1022.8928234,1023.8767236999997,1023.8767236999997,1023.8767236999997,1023.8767236999997,1023.8935968999999,1024.8929628,1024.8929628,v,1,0.4547919000001457,None,01,001,2023-10-09_13h15.54.320,motorsequencelearning,2023.1.3,59.82499991045621,
-50,x,0,0,0,0,,,,,30,1,121,0,1025.3753960999998,1026.3748812999997,1026.3748812999997,1026.3748812999997,1026.3748812999997,1026.3748812999997,1027.3595249000005,1027.3595249000005,x,1,0.48492189999933544,None,01,001,2023-10-09_13h15.54.320,motorsequencelearning,2023.1.3,59.82499991045621,
-50,x,0,0,0,0,,,,,30,2,122,0,1027.8757676999999,1028.8759832,1028.8759832,1028.8759832,1028.8759832,1028.8759832,1029.8756714000006,1029.8756714000006,x,1,0.43114770000056524,None,01,001,2023-10-09_13h15.54.320,motorsequencelearning,2023.1.3,59.82499991045621,
-150,z,0,0,0,0,,,,,30,3,123,3,1030.3258880999997,1031.3228632000005,1031.3228632000005,1031.3228632000005,1031.3228632000005,1031.3424909999999,1032.3245441000004,1032.3245441000004,z,1,0.3868363999995381,None,01,001,2023-10-09_13h15.54.320,motorsequencelearning,2023.1.3,59.82499991045621,
-150,z,0,0,0,0,,,,,31,0,124,3,1032.7416625,1033.7254662,1033.7254662,1033.7254662,1033.7254662,1033.7418842000002,1034.7402980000002,1034.7402980000002,z,1,0.43200409999963085,None,01,001,2023-10-09_13h15.54.320,motorsequencelearning,2023.1.3,59.82499991045621,
-50,x,0,0,0,0,,,,,31,1,125,0,1035.1892873000002,1036.1724225000003,1036.1724225000003,1036.1724225000003,1036.1724225000003,1036.1892374000004,1037.1883688000003,1037.1883688000003,x,1,0.4670743000001494,None,01,001,2023-10-09_13h15.54.320,motorsequencelearning,2023.1.3,59.82499991045621,
50,c,0,0,0,0,,,,,31,2,126,2,1037.6885932999999,1038.6872284000005,1038.6872284000005,1038.6872284000005,1038.6872284000005,1038.7046566000004,1039.6882657,1039.6882657,c,1,0.7053474999997889,None,01,001,2023-10-09_13h15.54.320,motorsequencelearning,2023.1.3,59.82499991045621,
-150,z,0,0,0,0,,,,,31,3,127,3,1040.4214662,1041.4206137000006,1041.4206137000006,1041.4206137000006,1041.4206137000006,1041.4206137000006,1042.4040896000001,1042.4040896000001,z,1,0.6857966000002307,None,01,001,2023-10-09_13h15.54.320,motorsequencelearning,2023.1.3,59.82499991045621,
50,c,0,0,0,0,,,,,32,0,128,2,1043.1200985,1044.1037615,1044.1037615,1044.1037615,1044.1037615,1044.1210271000004,1045.1199585,1045.1199585,c,1,0.5429093999996439,None,01,001,2023-10-09_13h15.54.320,motorsequencelearning,2023.1.3,59.82499991045621,
-50,x,0,0,0,0,,,,,32,1,129,0,1045.6866252000004,1046.6859678000005,1046.6859678000005,1046.6859678000005,1046.6859678000005,1046.6859678000005,1047.6849244999999,1047.6849244999999,x,1,1.5666215999995075,None,01,001,2023-10-09_13h15.54.320,motorsequencelearning,2023.1.3,59.82499991045621,
50,c,0,0,0,0,,,,,32,2,130,2,1049.2684224,1050.2680046,1050.2680046,1050.2680046,1050.2680046,1050.2680046,1051.2683240000001,1051.2683240000001,c,1,0.7010771000000204,None,01,001,2023-10-09_13h15.54.320,motorsequencelearning,2023.1.3,59.82499991045621,
-150,z,0,0,0,0,,,,,32,3,131,3,1052.0009004999997,1052.9999861000001,1052.9999861000001,1052.9999861000001,1052.9999861000001,1052.9999861000001,1054.000431,1054.000431,z,1,0.5783950000000004,None,01,001,2023-10-09_13h15.54.320,motorsequencelearning,2023.1.3,59.82499991045621,
-50,x,0,0,0,0,,,,,33,0,132,0,1054.5999502999998,1055.6009995999998,1055.6009995999998,1055.6009995999998,1055.6009995999998,1055.6009995999998,1056.599474,1056.599474,x,1,0.8282659000001331,None,01,001,2023-10-09_13h15.54.320,motorsequencelearning,2023.1.3,59.82499991045621,
-150,z,0,0,0,0,,,,,33,1,133,3,1057.4492424000005,1058.4491772000006,1058.4491772000006,1058.4491772000006,1058.4491772000006,1058.4491772000006,1059.4486355000004,1059.4486355000004,z,1,0.527201000000332,None,01,001,2023-10-09_13h15.54.320,motorsequencelearning,2023.1.3,59.82499991045621,
-150,z,0,0,0,0,,,,,33,2,134,3,1059.9983693,1060.9992048999998,1060.9992048999998,1060.9992048999998,1060.9992048999998,1060.9992048999998,1061.9977542000001,1061.9977542000001,z,1,0.3526931000001241,None,01,001,2023-10-09_13h15.54.320,motorsequencelearning,2023.1.3,59.82499991045621,
150,v,0,0,0,0,,,,,33,3,135,1,1062.3812866000003,1063.3808658000003,1063.3808658000003,1063.3808658000003,1063.3808658000003,1063.3808658000003,1064.3804206,1064.3804206,v,1,0.8568357000008291,None,01,001,2023-10-09_13h15.54.320,motorsequencelearning,2023.1.3,59.82499991045621,
150,v,0,0,0,0,,,,,34,0,136,1,1065.2636023999999,1066.2637375,1066.2637375,1066.2637375,1066.2637375,1066.2637375,1067.2630767000005,1067.2630767000005,v,1,0.8201721999998881,None,01,001,2023-10-09_13h15.54.320,motorsequencelearning,2023.1.3,59.82499991045621,
150,v,0,0,0,0,,,,,34,1,137,1,1068.1123182000006,1069.1126182000003,1069.1126182000003,1069.1126182000003,1069.1126182000003,1069.1126182000003,1070.1121278000005,1070.1121278000005,v,1,0.4010677000001124,None,01,001,2023-10-09_13h15.54.320,motorsequencelearning,2023.1.3,59.82499991045621,
-150,z,0,0,0,0,,,,,34,2,138,3,1070.5453374000003,1071.5455167000005,1071.5455167000005,1071.5455167000005,1071.5455167000005,1071.5455167000005,1072.5445832999999,1072.5445832999999,z,1,0.7648938999996062,None,01,001,2023-10-09_13h15.54.320,motorsequencelearning,2023.1.3,59.82499991045621,
-50,x,0,0,0,0,,,,,34,3,139,0,1073.3278948000002,1074.3280673000004,1074.3280673000004,1074.3280673000004,1074.3280673000004,1074.3280673000004,1075.3273511000002,1075.3273511000002,x,1,1.1750915999996323,None,01,001,2023-10-09_13h15.54.320,motorsequencelearning,2023.1.3,59.82499991045621,
50,c,0,0,0,0,,,,,35,0,140,2,1076.5268339,1077.5268640999998,1077.5268640999998,1077.5268640999998,1077.5268640999998,1077.5268640999998,1078.5259836,1078.5259836,x,0,1.175578800000494,None,01,001,2023-10-09_13h15.54.320,motorsequencelearning,2023.1.3,59.82499991045621,
150,v,0,0,0,0,,,,,35,1,141,1,1079.7254861000006,1080.7247025000001,1080.7247025000001,1080.7247025000001,1080.7247025000001,1080.7418816000004,1081.7248389000001,1081.7248389000001,v,1,0.534089700000095,None,01,001,2023-10-09_13h15.54.320,motorsequencelearning,2023.1.3,59.82499991045621,
150,v,0,0,0,0,,,,,35,2,142,1,1082.2913125999999,1083.2913969000006,1083.2913969000006,1083.2913969000006,1083.2913969000006,1083.2913969000006,1084.2906069000005,1084.2906069000005,v,1,0.5037932999998702,None,01,001,2023-10-09_13h15.54.320,motorsequencelearning,2023.1.3,59.82499991045621,
50,c,0,0,0,0,,,,,35,3,143,2,1084.8241703999997,1085.8237134000005,1085.8237134000005,1085.8237134000005,1085.8237134000005,1085.8237134000005,1086.8233931999998,1086.8233931999998,c,1,0.6036533999999847,None,01,001,2023-10-09_13h15.54.320,motorsequencelearning,2023.1.3,59.82499991045621,
-150,z,0,0,0,0,,,,,36,0,144,3,1087.4565343,1088.4571024000002,1088.4571024000002,1088.4571024000002,1088.4571024000002,1088.4571024000002,1089.4561061999998,1089.4561061999998,z,1,0.812765600000148,None,01,001,2023-10-09_13h15.54.320,motorsequencelearning,2023.1.3,59.82499991045621,
-50,x,0,0,0,0,,,,,36,1,145,0,1090.2890774000002,1091.304517,1091.304517,1091.304517,1091.304517,1091.304517,1092.2890886999999,1092.2890886999999,x,1,0.7927218999998331,None,01,001,2023-10-09_13h15.54.320,motorsequencelearning,2023.1.3,59.82499991045621,
50,c,0,0,0,0,,,,,36,2,146,2,1093.1041685000005,1094.1038905,1094.1038905,1094.1038905,1094.1038905,1094.1212333999997,1095.1040042999998,1095.1040042999998,c,1,0.44722279999996317,None,01,001,2023-10-09_13h15.54.320,motorsequencelearning,2023.1.3,59.82499991045621,
-50,x,0,0,0,0,,,,,36,3,147,0,1095.5705897000003,1096.5716529000006,1096.5716529000006,1096.5716529000006,1096.5716529000006,1096.5716529000006,1097.5695877000003,1097.5695877000003,x,1,1.019375599999421,None,01,001,2023-10-09_13h15.54.320,motorsequencelearning,2023.1.3,59.82499991045621,
-150,z,0,0,0,0,,,,,37,0,148,3,1098.6194240999998,1099.6203178,1099.6203178,1099.6203178,1099.6203178,1099.6203178,1100.6194769999997,1100.6194769999997,z,1,0.5021586999996543,None,01,001,2023-10-09_13h15.54.320,motorsequencelearning,2023.1.3,59.82499991045621,
150,v,0,0,0,0,,,,,37,1,149,1,1101.1522947999997,1102.1524081000002,1102.1524081000002,1102.1524081000002,1102.1524081000002,1102.1524081000002,1103.1515380000005,1103.1515380000005,v,1,0.8060684999995829,None,01,001,2023-10-09_13h15.54.320,motorsequencelearning,2023.1.3,59.82499991045621,
-150,z,0,0,0,0,,,,,37,2,150,3,1103.9843233000006,1104.9849289999997,1104.9849289999997,1104.9849289999997,1104.9849289999997,1104.9849289999997,1105.9844256000001,1105.9844256000001,z,1,0.608881200000269,None,01,001,2023-10-09_13h15.54.320,motorsequencelearning,2023.1.3,59.82499991045621,
-50,x,0,0,0,0,,,,,37,3,151,0,1106.6173542000001,1107.6165631,1107.6165631,1107.6165631,1107.6165631,1107.6343155999998,1108.6166009000003,1108.6166009000003,x,1,0.5795765999996547,None,01,001,2023-10-09_13h15.54.320,motorsequencelearning,2023.1.3,59.82499991045621,
50,c,0,0,0,0,,,,,38,0,152,2,1109.2163248000002,1110.2155109,1110.2155109,1110.2155109,1110.2155109,1110.2343695000004,1111.2164976999998,1111.2164976999998,c,1,0.7566818000000239,None,01,001,2023-10-09_13h15.54.320,motorsequencelearning,2023.1.3,59.82499991045621,
-150,z,0,0,0,0,,,,,38,1,153,3,1111.9989916,1112.9987341,1112.9987341,1112.9987341,1112.9987341,1112.9987341,1113.9982931999998,1113.9982931999998,z,1,0.5793993000002047,None,01,001,2023-10-09_13h15.54.320,motorsequencelearning,2023.1.3,59.82499991045621,
50,c,0,0,0,0,,,,,38,2,154,2,1114.5980431000003,1115.6134531000002,1115.6134531000002,1115.6134531000002,1115.6134531000002,1115.6134531000002,1116.5977435,1116.5977435,c,1,0.6728514000001269,None,01,001,2023-10-09_13h15.54.320,motorsequencelearning,2023.1.3,59.82499991045621,
-150,z,0,0,0,0,,,,,38,3,155,3,1117.2965993000003,1118.2816404,1118.2816404,1118.2816404,1118.2816404,1118.2992125000005,1119.2816145000002,1119.2816145000002,z,1,0.37840100000039456,None,01,001,2023-10-09_13h15.54.320,motorsequencelearning,2023.1.3,59.82499991045621,
